prolific_pid,biome,feedback,comparison_type,salience_count,choice,choice_rt,consider_set,outcome_kind,outcome_value,best_alt_block,best_alt_kind,best_alt_value,best_alt_adjacent,xp,regret,trial_index,comp_tries_to_pass,comments,age,minecraft_freq_1mo,performance_satisfaction,race,gender
P0002,overworld,full,good_to_bad,8,6,18885,"[2,3,6,7,10,11,14,15]",diamond,4,5,diamond,4,TRUE,4,0,1,1,,35,Never,6,White,Man
P0002,cave,full,null,0,7,5600,[],coal,1,5,diamond,4,FALSE,5,19,2,1,,35,Never,6,White,Man
P0002,overworld,partial,null,0,10,2906,[],copper,2,9,diamond,4,TRUE,7,14,3,1,,35,Never,6,White,Man
P0002,cave,full,bad_to_good,2,8,9742,"[8,12]",none,0,1,diamond,4,FALSE,7,6,4,1,,35,Never,6,White,Man
P0002,deep,partial,null,0,16,2115,[],none,0,1,diamond,4,FALSE,7,45,5,1,,35,Never,6,White,Man
P0002,deep,partial,null,8,14,7654,"[13,9,10,14,11,15,16,12]",none,0,3,diamond,4,FALSE,7,42,6,1,,35,Never,6,White,Man
P0002,deep,partial,null,2,2,5246,"[2,3]",diamond,4,4,diamond,4,FALSE,11,0,7,1,,35,Never,6,White,Man
P0002,overworld,partial,null,2,6,4575,"[6,10]",diamond,4,13,diamond,4,FALSE,15,0,8,1,,35,Never,6,White,Man
P0002,cave,partial,null,0,7,3986,[],iron,3,10,diamond,4,FALSE,18,10,9,1,,35,Never,6,White,Man
P0002,cave,partial,null,8,7,7378,"[7,11,6,10,5,9,8,12]",copper,2,8,diamond,4,TRUE,20,17,10,1,,35,Never,6,White,Man
P0002,overworld,full,bad_to_good,2,6,5694,"[6,10]",copper,2,10,iron,3,TRUE,22,18,11,1,,35,Never,6,White,Man
P0002,overworld,full,bad_to_good,2,6,5327,"[6,7]",coal,1,11,iron,3,FALSE,23,8,12,1,,35,Never,6,White,Man
P0002,deep,full,good_to_bad,8,13,9249,"[1,4,16,13,10,7,6,11]",diamond,4,8,diamond,4,FALSE,27,0,13,1,,35,Never,6,White,Man
P0002,cave,partial,null,2,8,4292,"[8,12]",none,0,4,iron,3,TRUE,27,38,14,1,,35,Never,6,White,Man
P0002,deep,full,null,0,14,3096,[],iron,3,9,diamond,4,FALSE,30,2,15,1,,35,Never,6,White,Man
P0002,deep,partial,null,0,9,1494,[],iron,3,1,diamond,4,FALSE,33,0,16,1,,35,Never,6,White,Man
P0002,cave,partial,null,0,5,4800,[],none,0,15,diamond,4,FALSE,33,22,17,1,,35,Never,6,White,Man
P0002,cave,partial,null,2,7,3667,"[6,7]",copper,2,13,diamond,4,FALSE,35,20,18,1,,35,Never,6,White,Man
P0002,deep,partial,null,8,1,7414,"[10,11,4,1,7,6,13,16]",none,0,12,diamond,4,FALSE,35,45,19,1,,35,Never,6,White,Man
P0002,deep,full,bad_to_good,8,12,7018,"[2,3,8,12,9,5,14,15]",copper,2,6,diamond,4,FALSE,37,39,20,1,,35,Never,6,White,Man
P0002,overworld,full,null,0,6,1985,[],coal,1,14,diamond,4,FALSE,38,24,21,1,,35,Never,6,White,Man
P0002,cave,full,good_to_bad,8,12,6588,"[5,6,7,8,12,16,15,14]",iron,3,10,iron,3,FALSE,41,6,22,1,,35,Never,6,White,Man
P0002,deep,full,null,0,3,1527,[],none,0,7,diamond,4,TRUE,41,47,23,1,,35,Never,6,White,Man
P0002,cave,full,good_to_bad,8,8,5420,"[2,3,4,8,12,15,14,9]",iron,3,16,diamond,4,FALSE,44,1,24,1,,35,Never,6,White,Man
P0002,cave,partial,null,2,3,3219,"[2,3]",none,0,16,iron,3,FALSE,44,51,25,1,,35,Never,6,White,Man
P0002,cave,partial,null,0,1,908,[],copper,2,13,diamond,4,FALSE,46,10,26,1,,35,Never,6,White,Man
P0002,deep,partial,null,0,7,1114,[],iron,3,2,diamond,4,FALSE,49,2,27,1,,35,Never,6,White,Man
P0002,deep,full,null,0,1,986,[],copper,2,10,diamond,4,FALSE,51,17,28,1,,35,Never,6,White,Man
P0002,deep,partial,null,2,3,10775,"[2,3]",copper,2,2,diamond,4,TRUE,53,14,29,1,,35,Never,6,White,Man
P0002,overworld,full,good_to_bad,8,8,6043,"[3,4,8,11,16,15,14,13]",diamond,4,9,iron,3,FALSE,57,0,30,1,,35,Never,6,White,Man
P0002,overworld,partial,null,8,11,9807,"[2,1,12,11,15,16,4,8]",iron,3,5,iron,3,FALSE,60,7,31,1,,35,Never,6,White,Man
P0002,overworld,partial,null,2,6,6575,"[6,8]",none,0,7,diamond,4,TRUE,60,46,32,1,,35,Never,6,White,Man
P0002,overworld,partial,null,0,11,1831,[],none,0,10,diamond,4,TRUE,60,45,33,1,,35,Never,6,White,Man
P0002,cave,partial,null,8,6,8591,"[10,6,8,7,11,12,9,5]",diamond,4,8,diamond,4,FALSE,64,0,34,1,,35,Never,6,White,Man
P0002,deep,partial,null,8,7,10861,"[2,4,7,8,11,14,15,10]",diamond,4,12,diamond,4,FALSE,68,0,35,1,,35,Never,6,White,Man
P0002,deep,full,good_to_bad,2,2,3848,"[1,2]",diamond,4,10,diamond,4,FALSE,72,0,36,1,,35,Never,6,White,Man
P0002,overworld,full,null,0,6,10409,[],coal,1,10,diamond,4,TRUE,73,37,37,1,,35,Never,6,White,Man
P0002,overworld,partial,null,8,3,5433,"[2,3,8,7,11,12,16,15]",none,0,9,diamond,4,FALSE,73,59,38,1,,35,Never,6,White,Man
P0002,overworld,full,null,0,2,6005,[],none,0,14,diamond,4,FALSE,73,51,39,1,,35,Never,6,White,Man
P0002,deep,full,good_to_bad,8,6,4143,"[6,2,3,4,8,7,11,12]",diamond,4,5,diamond,4,TRUE,77,0,40,1,,35,Never,6,White,Man
P0002,deep,full,bad_to_good,8,3,4351,"[6,7,10,11,9,5,4,3]",none,0,2,diamond,4,TRUE,77,37,41,1,,35,Never,6,White,Man
P0002,deep,partial,null,8,9,5333,"[5,9,1,2,3,4,8,12]",diamond,4,3,diamond,4,FALSE,81,0,42,1,,35,Never,6,White,Man
P0002,cave,full,good_to_bad,2,3,2784,"[3,4]",diamond,4,10,diamond,4,FALSE,85,0,43,1,,35,Never,6,White,Man
P0002,overworld,partial,null,0,1,1743,[],coal,1,6,iron,3,FALSE,86,36,44,1,,35,Never,6,White,Man
P0002,cave,full,bad_to_good,2,3,4886,"[3,4]",none,0,9,diamond,4,FALSE,86,45,45,1,,35,Never,6,White,Man
P0002,cave,partial,null,8,6,8225,"[1,13,16,4,7,6,10,11]",diamond,4,15,diamond,4,FALSE,90,0,46,1,,35,Never,6,White,Man
P0002,overworld,full,good_to_bad,8,6,4376,"[2,6,7,8,12,11,15,16]",copper,2,1,coal,1,FALSE,92,22,47,1,,35,Never,6,White,Man
P0002,cave,full,bad_to_good,2,3,14629,"[2,3]",none,0,7,diamond,4,TRUE,92,57,48,1,,35,Never,6,White,Man
P0002,overworld,partial,null,0,1,3431,[],none,0,6,iron,3,FALSE,92,57,49,1,,35,Never,6,White,Man
P0002,overworld,partial,null,8,2,6165,"[2,7,6,3,10,11,15,14]",none,0,1,diamond,4,TRUE,92,49,50,1,,35,Never,6,White,Man
P0002,overworld,full,bad_to_good,2,6,3271,"[6,7]",coal,1,5,iron,3,TRUE,93,44,51,1,,35,Never,6,White,Man
P0002,overworld,full,bad_to_good,2,6,8377,"[2,6]",none,0,13,diamond,4,FALSE,93,49,52,1,,35,Never,6,White,Man
P0002,overworld,full,good_to_bad,8,6,4494,"[6,2,3,4,8,7,11,10]",diamond,4,9,diamond,4,FALSE,97,0,53,1,,35,Never,6,White,Man
P0002,cave,full,good_to_bad,8,6,3946,"[6,5,1,2,3,7,8,4]",diamond,4,2,iron,3,TRUE,101,0,54,1,,35,Never,6,White,Man
P0002,deep,full,bad_to_good,2,6,14256,"[2,6]",none,0,3,diamond,4,FALSE,101,34,55,1,,35,Never,6,White,Man
P0002,cave,partial,null,2,6,2721,"[5,6]",copper,2,9,diamond,4,FALSE,103,18,56,1,,35,Never,6,White,Man
P0002,cave,full,null,0,5,903,[],coal,1,12,diamond,4,FALSE,104,43,57,1,,35,Never,6,White,Man
P0002,deep,full,bad_to_good,2,6,7161,"[2,6]",none,0,2,diamond,4,TRUE,104,36,58,1,,35,Never,6,White,Man
P0002,deep,partial,null,0,6,1268,[],iron,3,8,diamond,4,FALSE,107,11,59,1,,35,Never,6,White,Man
P0002,cave,partial,null,0,6,3863,[],copper,2,14,diamond,4,FALSE,109,12,60,1,,35,Never,6,White,Man
P0002,cave,full,bad_to_good,8,6,4970,"[6,7,8,12,11,10,9,5]",none,0,14,diamond,4,FALSE,109,26,61,1,,35,Never,6,White,Man
P0002,deep,partial,null,2,6,9261,"[6,7]",none,0,8,diamond,4,FALSE,109,48,62,1,,35,Never,6,White,Man
P0002,deep,full,good_to_bad,2,6,10165,"[2,6]",diamond,4,5,diamond,4,TRUE,113,0,63,1,,35,Never,6,White,Man
P0002,cave,full,null,0,2,1818,[],copper,2,9,diamond,4,FALSE,115,11,64,1,,35,Never,6,White,Man
P0002,overworld,partial,null,2,6,2810,"[2,6]",coal,1,5,diamond,4,TRUE,116,42,65,1,,35,Never,6,White,Man
P0002,overworld,partial,null,2,6,3505,"[2,6]",coal,1,3,diamond,4,FALSE,117,45,66,1,,35,Never,6,White,Man
P0003,deep,partial,null,2,7,10393,"[4,7]",iron,3,5,diamond,4,FALSE,3,21,1,3,,37,Weekly,7,White,Woman
P0003,cave,full,bad_to_good,8,2,19745,"[3,2,6,10,15,11,7,4]",none,0,6,iron,3,TRUE,3,19,2,3,,37,Weekly,7,White,Woman
P0003,deep,full,good_to_bad,2,6,2768,"[3,6]",diamond,4,4,diamond,4,FALSE,7,4,3,3,,37,Weekly,7,White,Woman
P0003,cave,full,bad_to_good,2,8,3215,"[7,8]",none,0,4,diamond,4,TRUE,7,31,4,3,,37,Weekly,7,White,Woman
P0003,overworld,partial,null,0,11,1670,[],none,0,14,diamond,4,FALSE,7,19,5,3,,37,Weekly,7,White,Woman
P0003,overworld,partial,null,8,2,6839,"[5,7,8,6,2,3,4,1]",coal,1,5,iron,3,FALSE,8,17,6,3,,37,Weekly,7,White,Woman
P0003,deep,partial,null,0,12,940,[],copper,2,6,diamond,4,FALSE,10,36,7,3,,37,Weekly,7,White,Woman
P0003,cave,partial,null,2,11,3779,"[11,10]",coal,1,7,diamond,4,TRUE,11,42,8,3,,37,Weekly,7,White,Woman
P0003,overworld,partial,null,2,11,2588,"[7,11]",none,0,13,diamond,4,FALSE,11,20,9,3,,37,Weekly,7,White,Woman
P0003,cave,partial,null,8,8,5099,"[11,10,6,7,8,4,3,2]",copper,2,13,diamond,4,FALSE,13,18,10,3,,37,Weekly,7,White,Woman
P0003,overworld,partial,null,0,15,2054,[],copper,2,9,copper,2,FALSE,15,24,11,3,,37,Weekly,7,White,Woman
P0003,overworld,full,null,0,6,1304,[],none,0,8,diamond,4,FALSE,15,23,12,3,,37,Weekly,7,White,Woman
P0003,cave,partial,null,0,15,737,[],diamond,4,12,diamond,4,FALSE,19,0,13,3,,37,Weekly,7,White,Woman
P0003,overworld,full,good_to_bad,8,7,4801,"[11,15,10,6,7,3,2,1]",iron,3,12,diamond,4,FALSE,22,44,14,3,,37,Weekly,7,White,Woman
P0003,overworld,partial,null,8,12,4238,"[11,10,7,2,3,4,8,12]",coal,1,11,diamond,4,TRUE,23,37,15,3,,37,Weekly,7,White,Woman
P0003,cave,partial,null,2,6,4145,"[11,6]",diamond,4,15,diamond,4,FALSE,27,14,16,3,,37,Weekly,7,White,Woman
P0003,cave,partial,null,8,4,3519,"[3,6,9,14,15,12,8,4]",none,0,9,diamond,4,FALSE,27,15,17,3,,37,Weekly,7,White,Woman
P0003,deep,partial,null,8,7,3521,"[3,10,14,11,12,4,8,7]",none,0,4,diamond,4,FALSE,27,37,18,3,,37,Weekly,7,White,Woman
P0003,deep,full,null,0,10,595,[],diamond,4,2,diamond,4,FALSE,31,0,19,3,,37,Weekly,7,White,Woman
P0003,deep,full,null,0,8,1905,[],none,0,5,diamond,4,FALSE,31,16,20,3,,37,Weekly,7,White,Woman
P0003,deep,full,bad_to_good,8,7,8613,"[7,4,12,5,2,3,1,13]",none,0,4,diamond,4,FALSE,31,19,21,3,,37,Weekly,7,White,Woman
P0003,deep,partial,null,2,11,6161,"[11,10]",diamond,4,3,diamond,4,FALSE,35,0,22,3,,37,Weekly,7,White,Woman
P0003,cave,full,null,0,7,650,[],none,0,13,diamond,4,FALSE,35,21,23,3,,37,Weekly,7,White,Woman
P0003,overworld,partial,null,0,11,1343,[],copper,2,9,iron,3,FALSE,37,33,24,3,,37,Weekly,7,White,Woman
P0003,deep,full,null,0,11,1106,[],diamond,4,13,diamond,4,FALSE,41,0,25,3,,37,Weekly,7,White,Woman
P0003,deep,full,good_to_bad,2,8,2612,"[8,11]",iron,3,2,diamond,4,FALSE,44,18,26,3,,37,Weekly,7,White,Woman
P0003,cave,full,null,0,8,707,[],coal,1,15,diamond,4,FALSE,45,49,27,3,,37,Weekly,7,White,Woman
P0003,deep,full,good_to_bad,8,4,6417,"[8,11,15,10,6,2,3,4]",diamond,4,9,diamond,4,FALSE,49,0,28,3,,37,Weekly,7,White,Woman
P0003,overworld,partial,null,2,4,1928,"[4,3]",none,0,10,diamond,4,FALSE,49,55,29,3,,37,Weekly,7,White,Woman
P0003,cave,partial,null,2,8,2109,"[8,3]",diamond,4,4,diamond,4,TRUE,53,0,30,3,,37,Weekly,7,White,Woman
P0003,overworld,full,good_to_bad,2,7,2040,"[7,6]",coal,1,5,iron,3,FALSE,54,51,31,3,,37,Weekly,7,White,Woman
P0003,overworld,full,good_to_bad,8,5,5644,"[4,8,11,10,6,2,1,5]",iron,3,9,diamond,4,TRUE,57,27,32,3,,37,Weekly,7,White,Woman
P0003,overworld,partial,null,2,4,1655,"[4,3]",copper,2,10,iron,3,FALSE,59,17,33,3,,37,Weekly,7,White,Woman
P0003,cave,full,null,0,15,45,[],none,0,13,diamond,4,FALSE,59,47,34,3,,37,Weekly,7,White,Woman
P0003,deep,partial,null,0,7,266,[],none,0,12,diamond,4,FALSE,59,32,35,3,,37,Weekly,7,White,Woman
P0003,deep,full,good_to_bad,2,3,2581,"[4,3]",diamond,4,5,diamond,4,FALSE,63,0,36,3,,37,Weekly,7,White,Woman
P0003,deep,partial,null,8,11,4005,"[4,3,7,6,10,11,16,15]",none,0,10,diamond,4,TRUE,63,29,37,3,,37,Weekly,7,White,Woman
P0003,cave,full,good_to_bad,2,3,2373,"[3,4]",copper,2,6,diamond,4,FALSE,65,27,38,3,,37,Weekly,7,White,Woman
P0003,cave,full,bad_to_good,8,7,3754,"[3,10,15,16,12,8,4,7]",none,0,10,diamond,4,FALSE,65,24,39,3,,37,Weekly,7,White,Woman
P0003,deep,partial,null,0,10,615,[],diamond,4,6,diamond,4,TRUE,69,0,40,3,,37,Weekly,7,White,Woman
P0003,overworld,full,bad_to_good,2,3,1914,"[3,7]",none,0,10,diamond,4,FALSE,69,30,41,3,,37,Weekly,7,White,Woman
P0003,deep,full,bad_to_good,8,6,4908,"[11,4,8,12,7,3,2,6]",none,0,2,diamond,4,TRUE,69,31,42,3,,37,Weekly,7,White,Woman
P0003,overworld,full,null,0,11,736,[],none,0,6,iron,3,FALSE,69,31,43,3,,37,Weekly,7,White,Woman
P0003,overworld,full,good_to_bad,2,8,3841,"[8,7]",copper,2,14,iron,3,FALSE,71,29,44,3,,37,Weekly,7,White,Woman
P0003,overworld,partial,null,2,3,2325,"[11,3]",coal,1,6,iron,3,FALSE,72,41,45,3,,37,Weekly,7,White,Woman
P0003,deep,partial,null,8,2,3778,"[3,7,15,10,6,2,1,5]",none,0,1,diamond,4,TRUE,72,32,46,3,,37,Weekly,7,White,Woman
P0003,deep,full,bad_to_good,2,3,2459,"[3,10]",none,0,4,diamond,4,TRUE,72,33,47,3,,37,Weekly,7,White,Woman
P0003,cave,partial,null,0,7,496,[],none,0,6,diamond,4,TRUE,72,38,48,3,,37,Weekly,7,White,Woman
P0003,cave,partial,null,2,3,1846,"[3,7]",coal,1,7,iron,3,TRUE,73,41,49,3,,37,Weekly,7,White,Woman
P0003,overworld,full,bad_to_good,8,2,4694,"[3,7,11,6,2,1,5,9]",none,0,14,diamond,4,FALSE,73,34,50,3,,37,Weekly,7,White,Woman
P0003,deep,partial,null,2,3,2010,"[3,2]",iron,3,8,diamond,4,FALSE,76,32,51,3,,37,Weekly,7,White,Woman
P0003,overworld,full,null,0,11,789,[],none,0,7,diamond,4,TRUE,76,38,52,3,,37,Weekly,7,White,Woman
P0003,cave,partial,null,8,3,9096,"[2,6,4,8,12,11,3,1]",iron,3,13,diamond,4,FALSE,79,37,53,3,,37,Weekly,7,White,Woman
P0003,cave,full,good_to_bad,8,7,7048,"[11,7,3,2,1,6,5,9]",diamond,4,12,diamond,4,FALSE,83,0,54,3,,37,Weekly,7,White,Woman
P0003,overworld,partial,null,0,7,808,[],none,0,15,diamond,4,FALSE,83,18,55,3,,37,Weekly,7,White,Woman
P0003,cave,partial,null,0,7,1415,[],none,0,6,diamond,4,TRUE,83,38,56,3,,37,Weekly,7,White,Woman
P0003,overworld,partial,null,8,3,3245,"[3,2,1,5,6,7,8,4]",none,0,16,diamond,4,FALSE,83,45,57,3,,37,Weekly,7,White,Woman
P0003,cave,partial,null,0,7,651,[],iron,3,14,diamond,4,FALSE,86,26,58,3,,37,Weekly,7,White,Woman
P0003,deep,full,good_to_bad,8,4,3519,"[3,2,1,5,6,7,8,4]",diamond,4,11,diamond,4,FALSE,90,0,59,3,,37,Weekly,7,White,Woman
P0003,deep,partial,null,8,3,4902,"[3,1,5,7,8,12,11,2]",diamond,4,12,diamond,4,FALSE,94,0,60,3,,37,Weekly,7,White,Woman
P0003,cave,full,bad_to_good,8,4,3161,"[3,2,1,5,6,7,8,4]",coal,1,7,diamond,4,FALSE,95,36,61,3,,37,Weekly,7,White,Woman
P0003,overworld,full,bad_to_good,8,1,3155,"[2,3,4,8,7,6,5,1]",copper,2,9,diamond,4,FALSE,97,29,62,3,,37,Weekly,7,White,Woman
P0003,overworld,full,null,0,10,781,[],none,0,15,diamond,4,FALSE,97,28,63,3,,37,Weekly,7,White,Woman
P0003,deep,partial,null,2,3,2655,"[3,2]",none,0,2,diamond,4,TRUE,97,21,64,3,,37,Weekly,7,White,Woman
P0003,cave,full,good_to_bad,2,3,1516,"[3,2]",copper,2,11,diamond,4,FALSE,99,35,65,3,,37,Weekly,7,White,Woman
P0003,cave,full,null,0,7,514,[],copper,2,9,diamond,4,FALSE,101,32,66,3,,37,Weekly,7,White,Woman
P0004,overworld,partial,null,0,6,3455,[],none,0,7,iron,3,TRUE,0,58,1,1,None,34,Never,6,"Hispanic, Latino, or Spanish origin",Man
P0004,overworld,full,good_to_bad,8,2,28674,"[1,2,4,8,15,13,9,7]",diamond,4,10,diamond,4,FALSE,4,0,2,1,None,34,Never,6,"Hispanic, Latino, or Spanish origin",Man
P0004,cave,partial,null,0,2,1969,[],none,0,10,diamond,4,FALSE,4,22,3,1,None,34,Never,6,"Hispanic, Latino, or Spanish origin",Man
P0004,deep,full,bad_to_good,8,14,12245,"[4,3,2,1,5,9,13,14]",none,0,11,diamond,4,FALSE,4,21,4,1,None,34,Never,6,"Hispanic, Latino, or Spanish origin",Man
P0004,deep,partial,null,2,7,6945,"[7,12]",iron,3,1,diamond,4,FALSE,7,7,5,1,None,34,Never,6,"Hispanic, Latino, or Spanish origin",Man
P0004,cave,partial,null,0,15,3366,[],coal,1,2,diamond,4,FALSE,8,23,6,1,None,34,Never,6,"Hispanic, Latino, or Spanish origin",Man
P0004,deep,partial,null,8,6,162696,"[3,2,1,6,11,16,12,4]",none,0,11,diamond,4,FALSE,8,60,7,1,None,34,Never,6,"Hispanic, Latino, or Spanish origin",Man
P0004,cave,full,good_to_bad,8,5,14128,"[3,2,6,10,14,13,9,5]",diamond,4,7,iron,3,FALSE,12,0,8,1,None,34,Never,6,"Hispanic, Latino, or Spanish origin",Man
P0004,cave,full,null,0,8,4428,[],none,0,10,diamond,4,FALSE,12,47,9,1,None,34,Never,6,"Hispanic, Latino, or Spanish origin",Man
P0004,cave,partial,null,2,11,5559,"[11,12]",none,0,10,diamond,4,TRUE,12,53,10,1,None,34,Never,6,"Hispanic, Latino, or Spanish origin",Man
P0004,deep,partial,null,8,8,13511,"[3,2,6,11,8,12,16,13]",coal,1,9,diamond,4,FALSE,13,15,11,1,None,34,Never,6,"Hispanic, Latino, or Spanish origin",Man
P0004,overworld,partial,null,2,8,8241,"[7,8]",coal,1,16,diamond,4,FALSE,14,17,12,1,None,34,Never,6,"Hispanic, Latino, or Spanish origin",Man
P0004,cave,full,null,0,9,18941,[],coal,1,6,diamond,4,FALSE,15,22,13,1,None,34,Never,6,"Hispanic, Latino, or Spanish origin",Man
P0004,cave,partial,null,8,14,15717,"[2,4,5,9,14,13,16,12]",none,0,4,diamond,4,FALSE,15,5,14,1,None,34,Never,6,"Hispanic, Latino, or Spanish origin",Man
P0004,cave,partial,null,8,4,9540,"[1,2,7,11,12,8,4,3]",none,0,3,diamond,4,TRUE,15,47,15,1,None,34,Never,6,"Hispanic, Latino, or Spanish origin",Man
P0004,overworld,full,bad_to_good,8,9,12353,"[9,5,11,7,8,12,2,3]",diamond,4,11,iron,3,FALSE,19,0,16,1,None,34,Never,6,"Hispanic, Latino, or Spanish origin",Man
P0004,overworld,full,null,0,6,2025,[],copper,2,13,diamond,4,FALSE,21,3,17,1,None,34,Never,6,"Hispanic, Latino, or Spanish origin",Man
P0004,cave,full,good_to_bad,8,15,10113,"[3,4,12,8,16,15,14,13]",iron,3,11,diamond,4,TRUE,24,0,18,1,None,34,Never,6,"Hispanic, Latino, or Spanish origin",Man
P0004,deep,full,good_to_bad,8,14,11757,"[2,6,10,14,11,7,8,12]",diamond,4,5,diamond,4,FALSE,28,0,19,1,None,34,Never,6,"Hispanic, Latino, or Spanish origin",Man
P0004,overworld,partial,null,0,5,3341,[],coal,1,11,diamond,4,FALSE,29,7,20,1,None,34,Never,6,"Hispanic, Latino, or Spanish origin",Man
P0004,cave,full,good_to_bad,2,6,5201,"[6,5]",iron,3,2,iron,3,TRUE,32,4,21,1,None,34,Never,6,"Hispanic, Latino, or Spanish origin",Man
P0004,cave,full,good_to_bad,8,15,10117,"[11,7,3,2,5,9,13,15]",diamond,4,16,diamond,4,TRUE,36,0,22,1,None,34,Never,6,"Hispanic, Latino, or Spanish origin",Man
P0004,deep,partial,null,2,9,7831,"[9,8]",diamond,4,6,diamond,4,FALSE,40,0,23,1,None,34,Never,6,"Hispanic, Latino, or Spanish origin",Man
P0004,overworld,partial,null,8,8,11939,"[6,7,8,4,12,15,14,9]",none,0,9,diamond,4,FALSE,40,44,24,1,None,34,Never,6,"Hispanic, Latino, or Spanish origin",Man
P0004,overworld,full,bad_to_good,2,10,5923,"[10,5]",none,0,2,iron,3,FALSE,40,55,25,1,None,34,Never,6,"Hispanic, Latino, or Spanish origin",Man
P0004,deep,full,bad_to_good,2,14,6367,"[15,14]",none,0,11,diamond,4,FALSE,40,60,26,1,None,34,Never,6,"Hispanic, Latino, or Spanish origin",Man
P0004,overworld,full,good_to_bad,8,1,11257,"[10,2,1,5,7,4,8,12]",diamond,4,11,diamond,4,FALSE,44,0,27,1,None,34,Never,6,"Hispanic, Latino, or Spanish origin",Man
P0004,overworld,partial,null,8,3,12983,"[6,2,3,4,12,8,11,14]",coal,1,11,diamond,4,FALSE,45,12,28,1,None,34,Never,6,"Hispanic, Latino, or Spanish origin",Man
P0004,overworld,full,bad_to_good,8,7,12393,"[10,9,5,1,7,12,4,15]",none,0,9,iron,3,FALSE,45,34,29,1,None,34,Never,6,"Hispanic, Latino, or Spanish origin",Man
P0004,overworld,full,null,0,10,11015,[],none,0,9,diamond,4,TRUE,45,38,30,1,None,34,Never,6,"Hispanic, Latino, or Spanish origin",Man
P0004,overworld,partial,null,2,4,5479,"[2,4]",coal,1,12,diamond,4,FALSE,46,6,31,1,None,34,Never,6,"Hispanic, Latino, or Spanish origin",Man
P0004,cave,partial,null,0,9,1368,[],diamond,4,3,diamond,4,FALSE,50,0,32,1,None,34,Never,6,"Hispanic, Latino, or Spanish origin",Man
P0004,cave,partial,null,2,5,5149,"[5,9]",none,0,4,diamond,4,FALSE,50,29,33,1,None,34,Never,6,"Hispanic, Latino, or Spanish origin",Man
P0004,overworld,full,null,0,9,3733,[],none,0,13,diamond,4,TRUE,50,37,34,1,None,34,Never,6,"Hispanic, Latino, or Spanish origin",Man
P0004,deep,full,bad_to_good,2,15,7315,"[9,15]",none,0,1,diamond,4,FALSE,50,37,35,1,None,34,Never,6,"Hispanic, Latino, or Spanish origin",Man
P0004,cave,partial,null,2,1,6275,"[1,4]",coal,1,11,diamond,4,FALSE,51,7,36,1,None,34,Never,6,"Hispanic, Latino, or Spanish origin",Man
P0004,deep,partial,null,0,3,2604,[],none,0,4,diamond,4,TRUE,51,7,37,1,None,34,Never,6,"Hispanic, Latino, or Spanish origin",Man
P0004,cave,full,good_to_bad,2,5,5020,"[5,1]",diamond,4,7,diamond,4,FALSE,55,0,38,1,None,34,Never,6,"Hispanic, Latino, or Spanish origin",Man
P0004,cave,full,good_to_bad,2,11,10840,"[8,11]",diamond,4,7,diamond,4,TRUE,59,0,39,1,None,34,Never,6,"Hispanic, Latino, or Spanish origin",Man
P0004,cave,partial,null,8,4,11262,"[10,5,9,8,12,3,4,7]",coal,1,6,diamond,4,FALSE,60,9,40,1,None,34,Never,6,"Hispanic, Latino, or Spanish origin",Man
P0004,overworld,partial,null,2,15,8675,"[14,15]",copper,2,10,iron,3,FALSE,62,0,41,1,None,34,Never,6,"Hispanic, Latino, or Spanish origin",Man
P0004,overworld,partial,null,8,8,12415,"[10,6,7,11,3,2,5,8]",coal,1,11,iron,3,FALSE,63,3,42,1,None,34,Never,6,"Hispanic, Latino, or Spanish origin",Man
P0004,deep,partial,null,8,15,15578,"[10,5,1,13,15,8,3,4]",iron,3,1,diamond,4,FALSE,66,0,43,1,None,34,Never,6,"Hispanic, Latino, or Spanish origin",Man
P0004,deep,full,bad_to_good,8,8,12594,"[5,9,7,10,15,12,4,8]",none,0,9,diamond,4,FALSE,66,47,44,1,None,34,Never,6,"Hispanic, Latino, or Spanish origin",Man
P0004,overworld,full,good_to_bad,2,4,10655,"[4,16]",copper,2,13,diamond,4,FALSE,68,0,45,1,None,34,Never,6,"Hispanic, Latino, or Spanish origin",Man
P0004,cave,partial,null,0,12,3115,[],coal,1,13,diamond,4,FALSE,69,4,46,1,None,34,Never,6,"Hispanic, Latino, or Spanish origin",Man
P0004,overworld,full,good_to_bad,2,10,7864,"[10,15]",coal,1,9,diamond,4,TRUE,70,6,47,1,None,34,Never,6,"Hispanic, Latino, or Spanish origin",Man
P0004,overworld,full,bad_to_good,2,9,6776,"[9,2]",none,0,5,diamond,4,TRUE,70,46,48,1,None,34,Never,6,"Hispanic, Latino, or Spanish origin",Man
P0004,deep,partial,null,2,11,7270,"[7,11]",diamond,4,4,diamond,4,FALSE,74,0,49,1,None,34,Never,6,"Hispanic, Latino, or Spanish origin",Man
P0004,deep,full,null,0,14,7715,[],diamond,4,6,diamond,4,FALSE,78,0,50,1,None,34,Never,6,"Hispanic, Latino, or Spanish origin",Man
P0004,cave,full,bad_to_good,2,9,5183,"[9,10]",none,0,5,diamond,4,TRUE,78,42,51,1,None,34,Never,6,"Hispanic, Latino, or Spanish origin",Man
P0004,deep,full,bad_to_good,2,15,6846,"[15,10]",copper,2,11,diamond,4,TRUE,80,0,52,1,None,34,Never,6,"Hispanic, Latino, or Spanish origin",Man
P0004,deep,full,null,0,3,1556,[],coal,1,8,diamond,4,FALSE,81,5,53,1,None,34,Never,6,"Hispanic, Latino, or Spanish origin",Man
P0004,deep,partial,null,8,12,13993,"[12,10,14,9,5,3,8,4]",diamond,4,3,diamond,4,FALSE,85,0,54,1,None,34,Never,6,"Hispanic, Latino, or Spanish origin",Man
P0004,deep,partial,null,0,9,2525,[],diamond,4,6,diamond,4,FALSE,89,0,55,1,None,34,Never,6,"Hispanic, Latino, or Spanish origin",Man
P0004,deep,full,null,0,14,4227,[],diamond,4,2,diamond,4,FALSE,93,0,56,1,None,34,Never,6,"Hispanic, Latino, or Spanish origin",Man
P0004,deep,partial,null,0,5,2714,[],iron,3,3,diamond,4,FALSE,96,0,57,1,None,34,Never,6,"Hispanic, Latino, or Spanish origin",Man
P0004,overworld,partial,null,8,9,12396,"[9,5,13,14,15,8,12,3]",diamond,4,12,diamond,4,FALSE,100,0,58,1,None,34,Never,6,"Hispanic, Latino, or Spanish origin",Man
P0004,cave,full,null,0,10,3258,[],none,0,6,diamond,4,TRUE,100,0,59,1,None,34,Never,6,"Hispanic, Latino, or Spanish origin",Man
P0004,overworld,partial,null,0,12,4123,[],iron,3,16,iron,3,TRUE,103,0,60,1,None,34,Never,6,"Hispanic, Latino, or Spanish origin",Man
P0004,cave,full,bad_to_good,8,10,9476,"[7,3,2,8,10,13,9,5]",none,0,9,diamond,4,TRUE,103,51,61,1,None,34,Never,6,"Hispanic, Latino, or Spanish origin",Man
P0004,overworld,partial,null,2,15,5885,"[11,15]",iron,3,16,diamond,4,TRUE,106,0,62,1,None,34,Never,6,"Hispanic, Latino, or Spanish origin",Man
P0004,deep,full,good_to_bad,8,7,11415,"[5,9,13,14,10,15,7,12]",diamond,4,6,diamond,4,TRUE,110,0,63,1,None,34,Never,6,"Hispanic, Latino, or Spanish origin",Man
P0004,cave,partial,null,8,6,9074,"[6,2,1,7,12,15,14,9]",none,0,8,diamond,4,FALSE,110,38,64,1,None,34,Never,6,"Hispanic, Latino, or Spanish origin",Man
P0004,deep,full,null,0,9,4614,[],coal,1,6,diamond,4,FALSE,111,9,65,1,None,34,Never,6,"Hispanic, Latino, or Spanish origin",Man
P0004,deep,partial,null,0,10,1659,[],diamond,4,2,diamond,4,FALSE,115,0,66,1,None,34,Never,6,"Hispanic, Latino, or Spanish origin",Man
P0005,overworld,partial,null,2,6,19036,"[6,11]",coal,1,12,diamond,4,FALSE,1,100,1,1,,39,Never,5,White,Man
P0005,cave,full,bad_to_good,2,4,10155,"[1,4]",coal,1,5,diamond,4,FALSE,2,100,2,1,,39,Never,5,White,Man
P0005,cave,partial,null,8,8,13467,"[5,8,12,16,13,9,14,15]",none,0,9,diamond,4,FALSE,2,100,3,1,,39,Never,5,White,Man
P0005,overworld,full,null,0,1,7793,[],coal,1,9,diamond,4,FALSE,3,100,4,1,,39,Never,5,White,Man
P0005,overworld,full,good_to_bad,2,16,20342,"[13,16]",iron,3,9,diamond,4,FALSE,6,0,5,1,,39,Never,5,White,Man
P0005,deep,full,bad_to_good,8,4,11183,"[4,8,12,16,15,11,7,3]",none,0,9,diamond,4,FALSE,6,100,6,1,,39,Never,5,White,Man
P0005,overworld,full,null,0,13,8986,[],diamond,4,7,iron,3,FALSE,10,100,7,1,,39,Never,5,White,Man
P0005,cave,partial,null,0,15,5908,[],coal,1,10,iron,3,FALSE,11,100,8,1,,39,Never,5,White,Man
P0005,overworld,partial,null,2,13,6089,"[13,14]",coal,1,1,diamond,4,FALSE,12,100,9,1,,39,Never,5,White,Man
P0005,overworld,full,bad_to_good,8,11,16161,"[11,1,5,6,9,10,13,14]",none,0,14,diamond,4,FALSE,12,100,10,1,,39,Never,5,White,Man
P0005,deep,full,good_to_bad,2,14,12026,"[13,14]",diamond,4,5,diamond,4,FALSE,16,0,11,1,,39,Never,5,White,Man
P0005,cave,full,good_to_bad,8,3,19465,"[1,5,6,2,3,7,8,4]",diamond,4,11,diamond,4,FALSE,20,0,12,1,,39,Never,5,White,Man
P0005,overworld,partial,null,8,8,7862,"[8,4,3,7,11,15,16,12]",iron,3,11,diamond,4,FALSE,23,0,13,1,,39,Never,5,White,Man
P0005,deep,partial,null,2,1,4674,"[1,2]",coal,1,4,diamond,4,FALSE,24,100,14,1,,39,Never,5,White,Man
P0005,deep,full,good_to_bad,8,10,8270,"[13,14,15,16,12,11,10,9]",diamond,4,2,diamond,4,FALSE,28,0,15,1,,39,Never,5,White,Man
P0005,overworld,partial,null,2,11,11584,"[15,11]",none,0,13,diamond,4,FALSE,28,100,16,1,,39,Never,5,White,Man
P0005,cave,partial,null,2,3,10965,"[4,3]",coal,1,6,diamond,4,FALSE,29,100,17,1,,39,Never,5,White,Man
P0005,overworld,full,good_to_bad,8,10,14762,"[10,11,7,6,2,3,14,15]",diamond,4,13,diamond,4,FALSE,33,0,18,1,,39,Never,5,White,Man
P0005,cave,full,bad_to_good,2,10,5407,"[10,11]",coal,1,13,diamond,4,FALSE,34,100,19,1,,39,Never,5,White,Man
P0005,deep,partial,null,0,10,2452,[],iron,3,7,diamond,4,FALSE,37,0,20,1,,39,Never,5,White,Man
P0005,deep,full,good_to_bad,8,11,11803,"[10,14,11,15,12,16,9,13]",iron,3,1,diamond,4,FALSE,40,0,21,1,,39,Never,5,White,Man
P0005,cave,partial,null,2,10,7798,"[10,11]",diamond,4,8,iron,3,FALSE,44,0,22,1,,39,Never,5,White,Man
P0005,cave,full,good_to_bad,8,13,10706,"[13,9,10,14,15,11,12,16]",diamond,4,8,iron,3,FALSE,48,0,23,1,,39,Never,5,White,Man
P0005,cave,partial,null,0,10,1839,[],coal,1,3,diamond,4,FALSE,49,100,24,1,,39,Never,5,White,Man
P0005,overworld,partial,null,0,10,2561,[],none,0,15,diamond,4,FALSE,49,100,25,1,,39,Never,5,White,Man
P0005,deep,partial,null,8,11,9289,"[10,9,13,14,15,12,11,16]",none,0,1,diamond,4,FALSE,49,100,26,1,,39,Never,5,White,Man
P0005,cave,full,good_to_bad,8,10,6729,"[9,13,14,10,11,15,16,12]",diamond,4,7,diamond,4,FALSE,53,0,27,1,,39,Never,5,White,Man
P0005,cave,full,bad_to_good,2,13,7632,"[13,3]",none,0,2,iron,3,FALSE,53,100,28,1,,39,Never,5,White,Man
P0005,deep,full,good_to_bad,2,10,4806,"[10,11]",iron,3,1,iron,3,FALSE,56,0,29,1,,39,Never,5,White,Man
P0005,overworld,full,null,0,10,1202,[],copper,2,12,diamond,4,FALSE,58,50,30,1,,39,Never,5,White,Man
P0005,overworld,full,bad_to_good,2,11,7293,"[10,11]",none,0,9,diamond,4,FALSE,58,100,31,1,,39,Never,5,White,Man
P0005,overworld,partial,null,0,10,1713,[],diamond,4,6,iron,3,TRUE,62,0,32,1,,39,Never,5,White,Man
P0005,overworld,full,null,0,10,1502,[],none,0,9,iron,3,TRUE,62,100,33,1,,39,Never,5,White,Man
P0005,deep,partial,null,8,10,12138,"[9,13,14,10,11,15,16,12]",coal,1,5,diamond,4,FALSE,63,100,34,1,,39,Never,5,White,Man
P0005,cave,partial,null,8,10,24723,"[9,10,11,12,16,15,14,13]",iron,3,3,diamond,4,FALSE,66,0,35,1,,39,Never,5,White,Man
P0005,cave,partial,null,2,11,4936,"[10,11]",copper,2,5,diamond,4,FALSE,68,50,36,1,,39,Never,5,White,Man
P0005,overworld,partial,null,0,10,16494,[],none,0,5,diamond,4,FALSE,68,100,37,1,,39,Never,5,White,Man
P0005,deep,partial,null,2,10,5277,"[10,11]",none,0,8,diamond,4,FALSE,68,100,38,1,,39,Never,5,White,Man
P0005,cave,partial,null,8,10,8230,"[9,13,14,10,11,15,16,12]",iron,3,16,diamond,4,FALSE,71,0,39,1,,39,Never,5,White,Man
P0005,deep,full,null,0,10,5080,[],diamond,4,7,diamond,4,FALSE,75,0,40,1,,39,Never,5,White,Man
P0005,deep,partial,null,8,10,8380,"[9,13,14,10,11,15,16,12]",iron,3,6,diamond,4,TRUE,78,0,41,1,,39,Never,5,White,Man
P0005,deep,full,bad_to_good,2,11,5776,"[10,11]",none,0,4,diamond,4,FALSE,78,100,42,1,,39,Never,5,White,Man
P0005,deep,partial,null,2,11,6242,"[10,11]",none,0,9,diamond,4,FALSE,78,100,43,1,,39,Never,5,White,Man
P0005,cave,partial,null,0,10,1590,[],none,0,2,diamond,4,FALSE,78,100,44,1,,39,Never,5,White,Man
P0005,overworld,partial,null,0,10,1010,[],none,0,1,iron,3,FALSE,78,100,45,1,,39,Never,5,White,Man
P0005,cave,partial,null,0,10,1183,[],iron,3,3,diamond,4,FALSE,81,0,46,1,,39,Never,5,White,Man
P0005,deep,partial,null,0,10,1396,[],iron,3,7,diamond,4,FALSE,84,0,47,1,,39,Never,5,White,Man
P0005,deep,full,null,0,10,1851,[],diamond,4,1,diamond,4,FALSE,88,0,48,1,,39,Never,5,White,Man
P0005,deep,full,bad_to_good,8,10,17243,"[10,11,9,13,14,15,16,12]",none,0,4,diamond,4,FALSE,88,100,49,1,,39,Never,5,White,Man
P0005,overworld,partial,null,2,3,4506,"[3,2]",coal,1,14,diamond,4,FALSE,89,100,50,1,,39,Never,5,White,Man
P0005,deep,full,null,0,2,3728,[],copper,2,3,diamond,4,TRUE,91,50,51,1,,39,Never,5,White,Man
P0005,cave,full,good_to_bad,2,10,5703,"[10,14]",iron,3,5,diamond,4,FALSE,94,0,52,1,,39,Never,5,White,Man
P0005,cave,full,null,0,10,1977,[],iron,3,5,iron,3,FALSE,97,0,53,1,,39,Never,5,White,Man
P0005,deep,partial,null,2,10,6151,"[10,13]",diamond,4,6,diamond,4,TRUE,101,0,54,1,,39,Never,5,White,Man
P0005,overworld,full,good_to_bad,8,4,10478,"[5,1,2,6,7,3,4,8]",copper,2,14,diamond,4,FALSE,103,50,55,1,,39,Never,5,White,Man
P0005,overworld,partial,null,8,13,35578,"[13,9,10,14,15,11,12,16]",iron,3,12,diamond,4,FALSE,106,0,56,1,,39,Never,5,White,Man
P0005,cave,full,bad_to_good,8,10,9588,"[9,13,14,10,15,11,12,16]",none,0,5,diamond,4,FALSE,106,100,57,1,,39,Never,5,White,Man
P0005,overworld,partial,null,8,10,6467,"[9,13,14,10,11,15,16,12]",coal,1,5,iron,3,FALSE,107,100,58,1,,39,Never,5,White,Man
P0005,cave,partial,null,2,10,4419,"[10,11]",copper,2,3,diamond,4,FALSE,109,50,59,1,,39,Never,5,White,Man
P0005,overworld,full,bad_to_good,8,14,10981,"[9,13,14,10,11,15,16,12]",none,0,12,diamond,4,FALSE,109,100,60,1,,39,Never,5,White,Man
P0005,cave,full,null,0,10,1914,[],iron,3,8,diamond,4,FALSE,112,0,61,1,,39,Never,5,White,Man
P0005,deep,full,null,0,10,3149,[],none,0,7,diamond,4,FALSE,112,100,62,1,,39,Never,5,White,Man
P0005,deep,partial,null,0,10,5400,[],coal,1,3,diamond,4,FALSE,113,100,63,1,,39,Never,5,White,Man
P0005,cave,full,null,0,10,3328,[],coal,1,8,diamond,4,FALSE,114,100,64,1,,39,Never,5,White,Man
P0005,deep,partial,null,8,10,6883,"[9,13,14,10,11,15,16,12]",coal,1,1,diamond,4,FALSE,115,100,65,1,,39,Never,5,White,Man
P0005,overworld,full,good_to_bad,2,16,9568,"[15,16]",iron,3,5,iron,3,FALSE,118,0,66,1,,39,Never,5,White,Man
P0006,overworld,full,null,0,11,5489,[],none,0,14,diamond,4,FALSE,0,100,1,1,Very clear and easy to understand. Super fun!,43,Weekly,3,Native Hawaiian or other Pacific Islander,Man
P0006,overworld,partial,null,8,6,31646,"[6,7,11,10,13,16,4,1]",none,0,5,diamond,4,TRUE,0,100,2,1,Very clear and easy to understand. Super fun!,43,Weekly,3,Native Hawaiian or other Pacific Islander,Man
P0006,cave,partial,null,8,7,16248,"[10,7,2,5,15,4,13,12]",none,0,10,diamond,4,FALSE,0,100,3,1,Very clear and easy to understand. Super fun!,43,Weekly,3,Native Hawaiian or other Pacific Islander,Man
P0006,cave,partial,null,0,14,5883,[],diamond,4,5,diamond,4,FALSE,4,0,4,1,Very clear and easy to understand. Super fun!,43,Weekly,3,Native Hawaiian or other Pacific Islander,Man
P0006,cave,partial,null,0,7,4597,[],none,0,9,diamond,4,FALSE,4,100,5,1,Very clear and easy to understand. Super fun!,43,Weekly,3,Native Hawaiian or other Pacific Islander,Man
P0006,overworld,full,good_to_bad,8,3,15462,"[1,6,3,8,11,9,14,16]",coal,1,13,copper,2,FALSE,5,0,6,1,Very clear and easy to understand. Super fun!,43,Weekly,3,Native Hawaiian or other Pacific Islander,Man
P0006,cave,full,good_to_bad,2,1,15205,"[6,1]",coal,1,7,diamond,4,FALSE,6,0,7,1,Very clear and easy to understand. Super fun!,43,Weekly,3,Native Hawaiian or other Pacific Islander,Man
P0006,deep,full,good_to_bad,2,11,9587,"[11,16]",diamond,4,5,diamond,4,FALSE,10,0,8,1,Very clear and easy to understand. Super fun!,43,Weekly,3,Native Hawaiian or other Pacific Islander,Man
P0006,deep,full,bad_to_good,8,5,13709,"[2,5,7,10,12,15,13,4]",none,0,2,diamond,4,FALSE,10,100,9,1,Very clear and easy to understand. Super fun!,43,Weekly,3,Native Hawaiian or other Pacific Islander,Man
P0006,deep,partial,null,8,7,13051,"[4,2,7,5,10,12,15,13]",none,0,4,diamond,4,FALSE,10,100,10,1,Very clear and easy to understand. Super fun!,43,Weekly,3,Native Hawaiian or other Pacific Islander,Man
P0006,overworld,partial,null,2,10,6081,"[10,14]",coal,1,8,diamond,4,FALSE,11,0,11,1,Very clear and easy to understand. Super fun!,43,Weekly,3,Native Hawaiian or other Pacific Islander,Man
P0006,overworld,full,bad_to_good,2,3,7700,"[3,11]",none,0,10,diamond,4,FALSE,11,100,12,1,Very clear and easy to understand. Super fun!,43,Weekly,3,Native Hawaiian or other Pacific Islander,Man
P0006,overworld,full,good_to_bad,8,10,14862,"[9,6,11,14,16,8,10,7]",iron,3,5,iron,3,FALSE,14,0,13,1,Very clear and easy to understand. Super fun!,43,Weekly,3,Native Hawaiian or other Pacific Islander,Man
P0006,cave,full,good_to_bad,8,7,13536,"[11,12,16,15,10,7,6,5]",iron,3,13,diamond,4,FALSE,17,0,14,1,Very clear and easy to understand. Super fun!,43,Weekly,3,Native Hawaiian or other Pacific Islander,Man
P0006,overworld,partial,null,0,13,3886,[],copper,2,14,diamond,4,TRUE,19,0,15,1,Very clear and easy to understand. Super fun!,43,Weekly,3,Native Hawaiian or other Pacific Islander,Man
P0006,deep,partial,null,0,3,3426,[],none,0,5,diamond,4,FALSE,19,100,16,1,Very clear and easy to understand. Super fun!,43,Weekly,3,Native Hawaiian or other Pacific Islander,Man
P0006,overworld,partial,null,8,8,12860,"[2,6,7,3,5,10,11,8]",coal,1,6,diamond,4,FALSE,20,0,17,1,Very clear and easy to understand. Super fun!,43,Weekly,3,Native Hawaiian or other Pacific Islander,Man
P0006,cave,full,good_to_bad,2,9,12558,"[10,9]",iron,3,6,iron,3,FALSE,23,0,18,1,Very clear and easy to understand. Super fun!,43,Weekly,3,Native Hawaiian or other Pacific Islander,Man
P0006,deep,full,good_to_bad,8,12,9086,"[8,7,3,4,6,2,11,12]",diamond,4,9,diamond,4,FALSE,27,0,19,1,Very clear and easy to understand. Super fun!,43,Weekly,3,Native Hawaiian or other Pacific Islander,Man
P0006,deep,full,bad_to_good,2,6,7579,"[10,6]",none,0,1,diamond,4,FALSE,27,100,20,1,Very clear and easy to understand. Super fun!,43,Weekly,3,Native Hawaiian or other Pacific Islander,Man
P0006,overworld,full,null,0,5,5854,[],coal,1,16,diamond,4,FALSE,28,0,21,1,Very clear and easy to understand. Super fun!,43,Weekly,3,Native Hawaiian or other Pacific Islander,Man
P0006,deep,full,null,0,15,18249,[],diamond,4,1,diamond,4,FALSE,32,0,22,1,Very clear and easy to understand. Super fun!,43,Weekly,3,Native Hawaiian or other Pacific Islander,Man
P0006,cave,full,bad_to_good,8,12,16733,"[6,10,7,11,15,16,12,8]",none,0,10,diamond,4,FALSE,32,100,23,1,Very clear and easy to understand. Super fun!,43,Weekly,3,Native Hawaiian or other Pacific Islander,Man
P0006,deep,partial,null,0,3,8084,[],iron,3,2,diamond,4,TRUE,35,0,24,1,Very clear and easy to understand. Super fun!,43,Weekly,3,Native Hawaiian or other Pacific Islander,Man
P0006,cave,full,bad_to_good,8,10,13146,"[9,13,14,10,6,2,3,4]",none,0,13,diamond,4,FALSE,35,100,25,1,Very clear and easy to understand. Super fun!,43,Weekly,3,Native Hawaiian or other Pacific Islander,Man
P0006,deep,full,null,0,12,4711,[],diamond,4,1,diamond,4,FALSE,39,0,26,1,Very clear and easy to understand. Super fun!,43,Weekly,3,Native Hawaiian or other Pacific Islander,Man
P0006,deep,full,good_to_bad,2,11,8309,"[6,11]",iron,3,4,diamond,4,FALSE,42,0,27,1,Very clear and easy to understand. Super fun!,43,Weekly,3,Native Hawaiian or other Pacific Islander,Man
P0006,cave,partial,null,2,16,9411,"[1,16]",coal,1,13,diamond,4,FALSE,43,0,28,1,Very clear and easy to understand. Super fun!,43,Weekly,3,Native Hawaiian or other Pacific Islander,Man
P0006,deep,partial,null,0,14,10400,[],none,0,4,diamond,4,FALSE,43,100,29,1,Very clear and easy to understand. Super fun!,43,Weekly,3,Native Hawaiian or other Pacific Islander,Man
P0006,overworld,full,bad_to_good,2,11,13011,"[11,3]",none,0,13,diamond,4,FALSE,43,100,30,1,Very clear and easy to understand. Super fun!,43,Weekly,3,Native Hawaiian or other Pacific Islander,Man
P0006,deep,partial,null,8,11,16224,"[8,12,16,15,11,14,10,7]",none,0,6,diamond,4,FALSE,43,100,31,1,Very clear and easy to understand. Super fun!,43,Weekly,3,Native Hawaiian or other Pacific Islander,Man
P0006,overworld,partial,null,8,11,13680,"[16,12,15,14,11,8,7,10]",none,0,13,diamond,4,FALSE,43,100,32,1,Very clear and easy to understand. Super fun!,43,Weekly,3,Native Hawaiian or other Pacific Islander,Man
P0006,overworld,partial,null,0,11,4905,[],coal,1,15,diamond,4,TRUE,44,0,33,1,Very clear and easy to understand. Super fun!,43,Weekly,3,Native Hawaiian or other Pacific Islander,Man
P0006,overworld,partial,null,2,11,13758,"[8,11]",coal,1,2,diamond,4,FALSE,45,0,34,1,Very clear and easy to understand. Super fun!,43,Weekly,3,Native Hawaiian or other Pacific Islander,Man
P0006,cave,partial,null,8,14,11112,"[11,15,16,12,8,10,14,7]",diamond,4,12,diamond,4,FALSE,49,0,35,1,Very clear and easy to understand. Super fun!,43,Weekly,3,Native Hawaiian or other Pacific Islander,Man
P0006,overworld,partial,null,0,2,2112,[],none,0,9,diamond,4,FALSE,49,100,36,1,Very clear and easy to understand. Super fun!,43,Weekly,3,Native Hawaiian or other Pacific Islander,Man
P0006,deep,partial,null,2,13,6977,"[9,13]",none,0,5,diamond,4,FALSE,49,100,37,1,Very clear and easy to understand. Super fun!,43,Weekly,3,Native Hawaiian or other Pacific Islander,Man
P0006,overworld,full,null,0,16,19647,[],copper,2,15,diamond,4,TRUE,51,0,38,1,Very clear and easy to understand. Super fun!,43,Weekly,3,Native Hawaiian or other Pacific Islander,Man
P0006,cave,partial,null,2,6,6433,"[3,6]",coal,1,12,diamond,4,FALSE,52,0,39,1,Very clear and easy to understand. Super fun!,43,Weekly,3,Native Hawaiian or other Pacific Islander,Man
P0006,overworld,partial,null,0,8,2246,[],copper,2,16,diamond,4,FALSE,54,0,40,1,Very clear and easy to understand. Super fun!,43,Weekly,3,Native Hawaiian or other Pacific Islander,Man
P0006,cave,partial,null,2,5,8010,"[13,5]",copper,2,13,diamond,4,FALSE,56,0,41,1,Very clear and easy to understand. Super fun!,43,Weekly,3,Native Hawaiian or other Pacific Islander,Man
P0006,deep,full,bad_to_good,8,10,10100,"[2,1,5,6,3,7,10,9]",none,0,9,diamond,4,TRUE,56,100,42,1,Very clear and easy to understand. Super fun!,43,Weekly,3,Native Hawaiian or other Pacific Islander,Man
P0006,cave,full,null,0,3,7707,[],iron,3,8,diamond,4,FALSE,59,0,43,1,Very clear and easy to understand. Super fun!,43,Weekly,3,Native Hawaiian or other Pacific Islander,Man
P0006,cave,partial,null,2,7,13040,"[11,7]",none,0,12,diamond,4,FALSE,59,100,44,1,Very clear and easy to understand. Super fun!,43,Weekly,3,Native Hawaiian or other Pacific Islander,Man
P0006,overworld,partial,null,8,6,10133,"[9,13,10,14,15,5,6,7]",none,0,11,diamond,4,FALSE,59,100,45,1,Very clear and easy to understand. Super fun!,43,Weekly,3,Native Hawaiian or other Pacific Islander,Man
P0006,cave,partial,null,8,4,11121,"[4,3,7,8,12,6,2,11]",diamond,4,7,iron,3,FALSE,63,0,46,1,Very clear and easy to understand. Super fun!,43,Weekly,3,Native Hawaiian or other Pacific Islander,Man
P0006,cave,partial,null,8,16,10896,"[6,7,8,3,4,12,11,16]",none,0,5,diamond,4,FALSE,63,100,47,1,Very clear and easy to understand. Super fun!,43,Weekly,3,Native Hawaiian or other Pacific Islander,Man
P0006,deep,partial,null,8,16,10317,"[16,12,11,8,7,2,3,4]",diamond,4,6,diamond,4,FALSE,67,0,48,1,Very clear and easy to understand. Super fun!,43,Weekly,3,Native Hawaiian or other Pacific Islander,Man
P0006,deep,full,bad_to_good,8,6,11436,"[4,3,2,7,8,12,6,11]",none,0,2,diamond,4,TRUE,67,100,49,1,Very clear and easy to understand. Super fun!,43,Weekly,3,Native Hawaiian or other Pacific Islander,Man
P0006,cave,full,bad_to_good,8,7,10475,"[2,3,4,8,7,6,11,12]",none,0,10,diamond,4,FALSE,67,100,50,1,Very clear and easy to understand. Super fun!,43,Weekly,3,Native Hawaiian or other Pacific Islander,Man
P0006,overworld,full,good_to_bad,8,15,11034,"[6,7,11,12,10,14,15,16]",diamond,4,8,iron,3,FALSE,71,0,51,1,Very clear and easy to understand. Super fun!,43,Weekly,3,Native Hawaiian or other Pacific Islander,Man
P0006,overworld,partial,null,2,11,15080,"[14,11]",none,0,14,iron,3,FALSE,71,100,52,1,Very clear and easy to understand. Super fun!,43,Weekly,3,Native Hawaiian or other Pacific Islander,Man
P0006,cave,full,good_to_bad,2,12,5797,"[11,12]",diamond,4,9,diamond,4,FALSE,75,0,53,1,Very clear and easy to understand. Super fun!,43,Weekly,3,Native Hawaiian or other Pacific Islander,Man
P0006,deep,partial,null,2,14,10492,"[14,15]",diamond,4,1,diamond,4,FALSE,79,0,54,1,Very clear and easy to understand. Super fun!,43,Weekly,3,Native Hawaiian or other Pacific Islander,Man
P0006,deep,partial,null,0,10,8113,[],diamond,4,12,diamond,4,FALSE,83,0,55,1,Very clear and easy to understand. Super fun!,43,Weekly,3,Native Hawaiian or other Pacific Islander,Man
P0006,overworld,full,bad_to_good,2,5,5481,"[6,5]",none,0,13,iron,3,FALSE,83,100,56,1,Very clear and easy to understand. Super fun!,43,Weekly,3,Native Hawaiian or other Pacific Islander,Man
P0006,cave,partial,null,0,7,11313,[],coal,1,9,diamond,4,FALSE,84,0,57,1,Very clear and easy to understand. Super fun!,43,Weekly,3,Native Hawaiian or other Pacific Islander,Man
P0006,overworld,full,good_to_bad,2,5,9107,"[1,5]",copper,2,13,diamond,4,FALSE,86,0,58,1,Very clear and easy to understand. Super fun!,43,Weekly,3,Native Hawaiian or other Pacific Islander,Man
P0006,deep,full,bad_to_good,2,9,13860,"[14,9]",coal,1,5,diamond,4,TRUE,87,100,59,1,Very clear and easy to understand. Super fun!,43,Weekly,3,Native Hawaiian or other Pacific Islander,Man
P0006,cave,full,null,0,7,6626,[],none,0,15,diamond,4,FALSE,87,100,60,1,Very clear and easy to understand. Super fun!,43,Weekly,3,Native Hawaiian or other Pacific Islander,Man
P0006,deep,partial,null,8,10,14920,"[11,8,12,16,15,14,10,6]",copper,2,5,diamond,4,FALSE,89,0,61,1,Very clear and easy to understand. Super fun!,43,Weekly,3,Native Hawaiian or other Pacific Islander,Man
P0006,cave,full,good_to_bad,2,10,12812,"[9,10]",copper,2,3,diamond,4,FALSE,91,0,62,1,Very clear and easy to understand. Super fun!,43,Weekly,3,Native Hawaiian or other Pacific Islander,Man
P0006,deep,partial,null,2,4,6595,"[8,4]",copper,2,6,diamond,4,FALSE,93,0,63,1,Very clear and easy to understand. Super fun!,43,Weekly,3,Native Hawaiian or other Pacific Islander,Man
P0006,deep,full,null,0,1,6684,[],none,0,7,diamond,4,FALSE,93,100,64,1,Very clear and easy to understand. Super fun!,43,Weekly,3,Native Hawaiian or other Pacific Islander,Man
P0006,overworld,full,null,0,14,4042,[],diamond,4,10,diamond,4,TRUE,97,0,65,1,Very clear and easy to understand. Super fun!,43,Weekly,3,Native Hawaiian or other Pacific Islander,Man
P0006,cave,full,null,0,6,16303,[],coal,1,5,diamond,4,TRUE,98,0,66,1,Very clear and easy to understand. Super fun!,43,Weekly,3,Native Hawaiian or other Pacific Islander,Man
P0007,cave,full,good_to_bad,2,1,20823,"[1,2]",copper,2,11,iron,3,FALSE,2,0,1,2,"I'm a bit bummed I couldn't figure out the method to this, if there was one",31,Never,3,White,Woman
P0007,overworld,full,bad_to_good,2,3,16180,"[1,3]",none,0,8,iron,3,FALSE,2,100,2,2,"I'm a bit bummed I couldn't figure out the method to this, if there was one",31,Never,3,White,Woman
P0007,overworld,partial,null,2,5,9232,"[5,4]",copper,2,14,diamond,4,FALSE,4,30,3,2,"I'm a bit bummed I couldn't figure out the method to this, if there was one",31,Never,3,White,Woman
P0007,deep,full,null,0,9,2427,[],iron,3,2,diamond,4,FALSE,7,20,4,2,"I'm a bit bummed I couldn't figure out the method to this, if there was one",31,Never,3,White,Woman
P0007,overworld,partial,null,8,13,14395,"[1,5,13,9,4,8,12,16]",none,0,15,diamond,4,FALSE,7,100,5,2,"I'm a bit bummed I couldn't figure out the method to this, if there was one",31,Never,3,White,Woman
P0007,cave,partial,null,8,8,17266,"[4,8,12,16,5,9,1,14]",none,0,7,diamond,4,TRUE,7,100,6,2,"I'm a bit bummed I couldn't figure out the method to this, if there was one",31,Never,3,White,Woman
P0007,overworld,full,null,0,9,3060,[],iron,3,14,diamond,4,FALSE,10,20,7,2,"I'm a bit bummed I couldn't figure out the method to this, if there was one",31,Never,3,White,Woman
P0007,cave,full,null,0,9,7234,[],diamond,4,7,diamond,4,FALSE,14,0,8,2,"I'm a bit bummed I couldn't figure out the method to this, if there was one",31,Never,3,White,Woman
P0007,cave,partial,null,2,9,4597,"[9,10]",iron,3,3,diamond,4,FALSE,17,0,9,2,"I'm a bit bummed I couldn't figure out the method to this, if there was one",31,Never,3,White,Woman
P0007,overworld,full,bad_to_good,2,9,6229,"[9,10]",none,0,5,copper,2,TRUE,17,100,10,2,"I'm a bit bummed I couldn't figure out the method to this, if there was one",31,Never,3,White,Woman
P0007,deep,partial,null,2,9,6208,"[9,10]",diamond,4,3,diamond,4,FALSE,21,0,11,2,"I'm a bit bummed I couldn't figure out the method to this, if there was one",31,Never,3,White,Woman
P0007,overworld,partial,null,8,6,13086,"[2,3,4,8,7,6,5,1]",copper,2,11,diamond,4,FALSE,23,30,12,2,"I'm a bit bummed I couldn't figure out the method to this, if there was one",31,Never,3,White,Woman
P0007,deep,partial,null,0,9,976,[],copper,2,13,diamond,4,TRUE,25,0,13,2,"I'm a bit bummed I couldn't figure out the method to this, if there was one",31,Never,3,White,Woman
P0007,overworld,partial,null,2,7,4136,"[7,8]",none,0,14,iron,3,FALSE,25,0,14,2,"I'm a bit bummed I couldn't figure out the method to this, if there was one",31,Never,3,White,Woman
P0007,deep,partial,null,2,9,6165,"[9,12]",copper,2,13,diamond,4,TRUE,27,0,15,2,"I'm a bit bummed I couldn't figure out the method to this, if there was one",31,Never,3,White,Woman
P0007,overworld,partial,null,8,7,18780,"[7,8,9,10,11,12,13,14]",coal,1,12,diamond,4,FALSE,28,0,16,2,"I'm a bit bummed I couldn't figure out the method to this, if there was one",31,Never,3,White,Woman
P0007,overworld,partial,null,2,8,4609,"[8,9]",none,0,12,diamond,4,TRUE,28,0,17,2,"I'm a bit bummed I couldn't figure out the method to this, if there was one",31,Never,3,White,Woman
P0007,cave,full,good_to_bad,8,8,9472,"[8,9,10,11,12,13,14,15]",diamond,4,12,iron,3,TRUE,32,0,18,2,"I'm a bit bummed I couldn't figure out the method to this, if there was one",31,Never,3,White,Woman
P0007,deep,partial,null,8,9,5622,"[9,10,11,12,13,14,15,16]",diamond,4,7,diamond,4,FALSE,36,0,19,2,"I'm a bit bummed I couldn't figure out the method to this, if there was one",31,Never,3,White,Woman
P0007,cave,full,null,0,8,1380,[],none,0,10,diamond,4,FALSE,36,0,20,2,"I'm a bit bummed I couldn't figure out the method to this, if there was one",31,Never,3,White,Woman
P0007,deep,partial,null,8,9,5337,"[9,10,11,12,13,14,15,16]",diamond,4,2,diamond,4,FALSE,40,0,21,2,"I'm a bit bummed I couldn't figure out the method to this, if there was one",31,Never,3,White,Woman
P0007,overworld,full,null,0,16,3250,[],none,0,15,iron,3,TRUE,40,0,22,2,"I'm a bit bummed I couldn't figure out the method to this, if there was one",31,Never,3,White,Woman
P0007,cave,full,good_to_bad,2,8,6350,"[8,16]",coal,1,9,diamond,4,FALSE,41,0,23,2,"I'm a bit bummed I couldn't figure out the method to this, if there was one",31,Never,3,White,Woman
P0007,deep,partial,null,8,9,6767,"[9,10,11,12,13,14,16,15]",diamond,4,2,diamond,4,FALSE,45,0,24,2,"I'm a bit bummed I couldn't figure out the method to this, if there was one",31,Never,3,White,Woman
P0007,overworld,full,good_to_bad,8,2,6003,"[2,3,4,5,6,7,8,9]",copper,2,13,diamond,4,FALSE,47,0,25,2,"I'm a bit bummed I couldn't figure out the method to this, if there was one",31,Never,3,White,Woman
P0007,overworld,full,good_to_bad,2,2,6270,"[2,10]",iron,3,14,diamond,4,FALSE,50,0,26,2,"I'm a bit bummed I couldn't figure out the method to this, if there was one",31,Never,3,White,Woman
P0007,cave,full,null,0,8,999,[],copper,2,13,diamond,4,FALSE,52,0,27,2,"I'm a bit bummed I couldn't figure out the method to this, if there was one",31,Never,3,White,Woman
P0007,cave,partial,null,8,8,5667,"[8,9,10,11,12,13,14,15]",none,0,3,diamond,4,FALSE,52,0,28,2,"I'm a bit bummed I couldn't figure out the method to this, if there was one",31,Never,3,White,Woman
P0007,cave,full,good_to_bad,2,8,6038,"[8,9]",diamond,4,6,diamond,4,FALSE,56,0,29,2,"I'm a bit bummed I couldn't figure out the method to this, if there was one",31,Never,3,White,Woman
P0007,overworld,full,null,0,2,3504,[],none,0,11,diamond,4,FALSE,56,0,30,2,"I'm a bit bummed I couldn't figure out the method to this, if there was one",31,Never,3,White,Woman
P0007,overworld,partial,null,2,2,5983,"[2,7]",none,0,11,diamond,4,FALSE,56,0,31,2,"I'm a bit bummed I couldn't figure out the method to this, if there was one",31,Never,3,White,Woman
P0007,deep,partial,null,0,9,729,[],diamond,4,4,diamond,4,FALSE,60,0,32,2,"I'm a bit bummed I couldn't figure out the method to this, if there was one",31,Never,3,White,Woman
P0007,deep,full,bad_to_good,2,9,6487,"[9,8]",copper,2,1,diamond,4,FALSE,62,0,33,2,"I'm a bit bummed I couldn't figure out the method to this, if there was one",31,Never,3,White,Woman
P0007,overworld,partial,null,0,7,1719,[],coal,1,12,diamond,4,FALSE,63,0,34,2,"I'm a bit bummed I couldn't figure out the method to this, if there was one",31,Never,3,White,Woman
P0007,cave,partial,null,2,8,11113,"[8,14]",none,0,16,diamond,4,FALSE,63,0,35,2,"I'm a bit bummed I couldn't figure out the method to this, if there was one",31,Never,3,White,Woman
P0007,deep,full,good_to_bad,8,9,4603,"[9,10,11,12,13,14,15,16]",diamond,4,6,diamond,4,FALSE,67,0,36,2,"I'm a bit bummed I couldn't figure out the method to this, if there was one",31,Never,3,White,Woman
P0007,deep,full,null,0,9,1104,[],iron,3,5,diamond,4,TRUE,70,0,37,2,"I'm a bit bummed I couldn't figure out the method to this, if there was one",31,Never,3,White,Woman
P0007,cave,full,null,0,8,1754,[],iron,3,13,diamond,4,FALSE,73,0,38,2,"I'm a bit bummed I couldn't figure out the method to this, if there was one",31,Never,3,White,Woman
P0007,overworld,full,bad_to_good,2,7,5363,"[7,8]",coal,1,3,diamond,4,TRUE,74,0,39,2,"I'm a bit bummed I couldn't figure out the method to this, if there was one",31,Never,3,White,Woman
P0007,deep,full,null,0,9,1117,[],none,0,2,diamond,4,FALSE,74,0,40,2,"I'm a bit bummed I couldn't figure out the method to this, if there was one",31,Never,3,White,Woman
P0007,deep,partial,null,2,9,3482,"[9,8]",iron,3,8,diamond,4,FALSE,77,0,41,2,"I'm a bit bummed I couldn't figure out the method to this, if there was one",31,Never,3,White,Woman
P0007,deep,full,good_to_bad,8,9,6652,"[9,8,7,6,5,4,3,2]",diamond,4,10,diamond,4,TRUE,81,0,42,2,"I'm a bit bummed I couldn't figure out the method to this, if there was one",31,Never,3,White,Woman
P0007,overworld,partial,null,0,8,977,[],coal,1,13,iron,3,FALSE,82,0,43,2,"I'm a bit bummed I couldn't figure out the method to this, if there was one",31,Never,3,White,Woman
P0007,cave,full,bad_to_good,8,8,5850,"[8,1,2,3,4,5,6,7]",none,0,4,diamond,4,TRUE,82,0,44,2,"I'm a bit bummed I couldn't figure out the method to this, if there was one",31,Never,3,White,Woman
P0007,deep,full,bad_to_good,8,9,8956,"[9,13,1,5,2,6,10,14]",none,0,1,diamond,4,FALSE,82,0,45,2,"I'm a bit bummed I couldn't figure out the method to this, if there was one",31,Never,3,White,Woman
P0007,cave,partial,null,2,4,6647,"[4,7]",none,0,7,diamond,4,FALSE,82,0,46,2,"I'm a bit bummed I couldn't figure out the method to this, if there was one",31,Never,3,White,Woman
P0007,cave,partial,null,0,8,1971,[],none,0,16,diamond,4,FALSE,82,0,47,2,"I'm a bit bummed I couldn't figure out the method to this, if there was one",31,Never,3,White,Woman
P0007,deep,full,good_to_bad,8,9,4647,"[9,5,1,13,4,8,12,16]",diamond,4,2,diamond,4,FALSE,86,0,48,2,"I'm a bit bummed I couldn't figure out the method to this, if there was one",31,Never,3,White,Woman
P0007,overworld,full,bad_to_good,8,3,8054,"[1,2,3,4,13,14,15,16]",none,0,15,diamond,4,FALSE,86,0,49,2,"I'm a bit bummed I couldn't figure out the method to this, if there was one",31,Never,3,White,Woman
P0007,overworld,partial,null,0,15,635,[],coal,1,10,diamond,4,FALSE,87,0,50,2,"I'm a bit bummed I couldn't figure out the method to this, if there was one",31,Never,3,White,Woman
P0007,deep,partial,null,8,9,7135,"[9,6,2,10,14,3,7,11]",iron,3,8,diamond,4,FALSE,90,0,51,2,"I'm a bit bummed I couldn't figure out the method to this, if there was one",31,Never,3,White,Woman
P0007,deep,full,good_to_bad,2,9,5327,"[9,13]",iron,3,15,diamond,4,FALSE,93,0,52,2,"I'm a bit bummed I couldn't figure out the method to this, if there was one",31,Never,3,White,Woman
P0007,cave,partial,null,8,8,6998,"[8,7,3,4,11,12,15,16]",none,0,12,diamond,4,TRUE,93,0,53,2,"I'm a bit bummed I couldn't figure out the method to this, if there was one",31,Never,3,White,Woman
P0007,cave,full,bad_to_good,8,8,6209,"[8,3,7,2,6,1,11,15]",none,0,13,diamond,4,FALSE,93,0,54,2,"I'm a bit bummed I couldn't figure out the method to this, if there was one",31,Never,3,White,Woman
P0007,overworld,full,null,0,15,3083,[],coal,1,10,iron,3,FALSE,94,0,55,2,"I'm a bit bummed I couldn't figure out the method to this, if there was one",31,Never,3,White,Woman
P0007,deep,partial,null,2,9,4304,"[9,6]",iron,3,3,diamond,4,FALSE,97,0,56,2,"I'm a bit bummed I couldn't figure out the method to this, if there was one",31,Never,3,White,Woman
P0007,cave,partial,null,0,6,1062,[],none,0,4,diamond,4,FALSE,97,0,57,2,"I'm a bit bummed I couldn't figure out the method to this, if there was one",31,Never,3,White,Woman
P0007,overworld,full,good_to_bad,8,15,7614,"[15,3,13,4,16,1,2,14]",diamond,4,5,diamond,4,FALSE,101,0,58,2,"I'm a bit bummed I couldn't figure out the method to this, if there was one",31,Never,3,White,Woman
P0007,cave,full,bad_to_good,8,1,7488,"[1,6,8,4,7,2,3,5]",none,0,7,diamond,4,FALSE,101,0,59,2,"I'm a bit bummed I couldn't figure out the method to this, if there was one",31,Never,3,White,Woman
P0007,deep,full,good_to_bad,2,9,3669,"[9,7]",diamond,4,2,diamond,4,FALSE,105,0,60,2,"I'm a bit bummed I couldn't figure out the method to this, if there was one",31,Never,3,White,Woman
P0007,deep,partial,null,0,9,861,[],iron,3,2,diamond,4,FALSE,108,0,61,2,"I'm a bit bummed I couldn't figure out the method to this, if there was one",31,Never,3,White,Woman
P0007,cave,partial,null,0,7,1994,[],none,0,6,diamond,4,TRUE,108,0,62,2,"I'm a bit bummed I couldn't figure out the method to this, if there was one",31,Never,3,White,Woman
P0007,cave,partial,null,0,7,668,[],coal,1,16,diamond,4,FALSE,109,0,63,2,"I'm a bit bummed I couldn't figure out the method to this, if there was one",31,Never,3,White,Woman
P0007,cave,partial,null,8,7,10667,"[7,3,15,1,2,4,16,5]",none,0,11,diamond,4,TRUE,109,0,64,2,"I'm a bit bummed I couldn't figure out the method to this, if there was one",31,Never,3,White,Woman
P0007,overworld,partial,null,0,15,854,[],coal,1,10,diamond,4,FALSE,110,0,65,2,"I'm a bit bummed I couldn't figure out the method to this, if there was one",31,Never,3,White,Woman
P0007,deep,full,null,0,9,752,[],none,0,2,diamond,4,FALSE,110,0,66,2,"I'm a bit bummed I couldn't figure out the method to this, if there was one",31,Never,3,White,Woman
P0008,overworld,partial,null,2,1,14523,"[1,16]",copper,2,9,diamond,4,FALSE,2,45,1,1,It was straightforward with no technical issues.,44,Daily,6,Asian,Man
P0008,overworld,full,good_to_bad,8,16,31074,"[16,4,13,1,6,7,11,10]",diamond,4,2,iron,3,FALSE,6,0,2,1,It was straightforward with no technical issues.,44,Daily,6,Asian,Man
P0008,cave,partial,null,8,4,20561,"[6,7,11,10,16,4,1,13]",none,0,1,diamond,4,FALSE,6,100,3,1,It was straightforward with no technical issues.,44,Daily,6,Asian,Man
P0008,cave,partial,null,8,16,12271,"[1,4,16,13,10,11,7,6]",none,0,6,iron,3,FALSE,6,100,4,1,It was straightforward with no technical issues.,44,Daily,6,Asian,Man
P0008,overworld,full,null,0,16,12251,[],coal,1,6,diamond,4,FALSE,7,65,5,1,It was straightforward with no technical issues.,44,Daily,6,Asian,Man
P0008,overworld,full,null,0,2,7097,[],copper,2,11,diamond,4,FALSE,9,30,6,1,It was straightforward with no technical issues.,44,Daily,6,Asian,Man
P0008,cave,partial,null,2,10,24584,"[10,7]",diamond,4,11,diamond,4,TRUE,13,0,7,1,It was straightforward with no technical issues.,44,Daily,6,Asian,Man
P0008,deep,full,bad_to_good,8,15,15940,"[3,7,11,15,14,10,6,2]",none,0,3,diamond,4,FALSE,13,100,8,1,It was straightforward with no technical issues.,44,Daily,6,Asian,Man
P0008,overworld,full,bad_to_good,2,1,11853,"[1,16]",none,0,14,diamond,4,FALSE,13,100,9,1,It was straightforward with no technical issues.,44,Daily,6,Asian,Man
P0008,cave,full,null,0,13,7170,[],none,0,8,diamond,4,FALSE,13,100,10,1,It was straightforward with no technical issues.,44,Daily,6,Asian,Man
P0008,deep,full,null,0,6,1651,[],copper,2,9,diamond,4,FALSE,15,44,11,1,It was straightforward with no technical issues.,44,Daily,6,Asian,Man
P0008,overworld,full,good_to_bad,2,16,9431,"[16,4]",copper,2,13,diamond,4,FALSE,17,0,12,1,It was straightforward with no technical issues.,44,Daily,6,Asian,Man
P0008,overworld,partial,null,8,7,7693,"[3,7,11,15,14,10,6,2]",coal,1,15,iron,3,FALSE,18,65,13,1,It was straightforward with no technical issues.,44,Daily,6,Asian,Man
P0008,cave,full,good_to_bad,8,9,15350,"[5,6,7,8,12,11,10,9]",diamond,4,15,diamond,4,FALSE,22,0,14,1,It was straightforward with no technical issues.,44,Daily,6,Asian,Man
P0008,cave,full,good_to_bad,8,5,11025,"[1,4,16,13,5,9,8,12]",diamond,4,2,iron,3,FALSE,26,0,15,1,It was straightforward with no technical issues.,44,Daily,6,Asian,Man
P0008,cave,partial,null,2,15,7070,"[2,15]",none,0,6,diamond,4,FALSE,26,100,16,1,It was straightforward with no technical issues.,44,Daily,6,Asian,Man
P0008,deep,partial,null,8,7,11108,"[4,13,16,1,6,7,11,10]",diamond,4,3,diamond,4,TRUE,30,0,17,1,It was straightforward with no technical issues.,44,Daily,6,Asian,Man
P0008,cave,full,null,0,13,5064,[],diamond,4,4,diamond,4,FALSE,34,0,18,1,It was straightforward with no technical issues.,44,Daily,6,Asian,Man
P0008,cave,full,good_to_bad,8,12,9595,"[2,3,5,8,12,9,14,15]",diamond,4,11,diamond,4,TRUE,38,0,19,1,It was straightforward with no technical issues.,44,Daily,6,Asian,Man
P0008,deep,full,good_to_bad,2,10,8291,"[6,10]",diamond,4,3,diamond,4,FALSE,42,0,20,1,It was straightforward with no technical issues.,44,Daily,6,Asian,Man
P0008,cave,full,good_to_bad,2,14,4881,"[3,14]",iron,3,5,diamond,4,FALSE,45,0,21,1,It was straightforward with no technical issues.,44,Daily,6,Asian,Man
P0008,overworld,full,null,0,4,2272,[],coal,1,15,copper,2,FALSE,46,35,22,1,It was straightforward with no technical issues.,44,Daily,6,Asian,Man
P0008,cave,full,bad_to_good,8,7,14369,"[4,1,13,16,11,6,7,10]",none,0,6,diamond,4,TRUE,46,100,23,1,It was straightforward with no technical issues.,44,Daily,6,Asian,Man
P0008,overworld,partial,null,2,1,7844,"[1,9]",coal,1,13,diamond,4,FALSE,47,50,24,1,It was straightforward with no technical issues.,44,Daily,6,Asian,Man
P0008,overworld,partial,null,2,2,8869,"[3,2]",none,0,15,diamond,4,FALSE,47,100,25,1,It was straightforward with no technical issues.,44,Daily,6,Asian,Man
P0008,overworld,full,bad_to_good,2,15,6602,"[15,4]",none,0,11,diamond,4,TRUE,47,100,26,1,It was straightforward with no technical issues.,44,Daily,6,Asian,Man
P0008,cave,partial,null,0,7,5965,[],none,0,10,diamond,4,FALSE,47,100,27,1,It was straightforward with no technical issues.,44,Daily,6,Asian,Man
P0008,deep,partial,null,0,9,5433,[],none,0,8,diamond,4,FALSE,47,100,28,1,It was straightforward with no technical issues.,44,Daily,6,Asian,Man
P0008,cave,partial,null,8,16,7702,"[2,3,7,6,10,11,16,15]",none,0,9,diamond,4,FALSE,47,100,29,1,It was straightforward with no technical issues.,44,Daily,6,Asian,Man
P0008,deep,partial,null,0,11,6818,[],iron,3,1,diamond,4,FALSE,50,8,30,1,It was straightforward with no technical issues.,44,Daily,6,Asian,Man
P0008,overworld,partial,null,0,16,1731,[],coal,1,15,diamond,4,TRUE,51,68,31,1,It was straightforward with no technical issues.,44,Daily,6,Asian,Man
P0008,deep,partial,null,0,4,2558,[],diamond,4,11,diamond,4,FALSE,55,0,32,1,It was straightforward with no technical issues.,44,Daily,6,Asian,Man
P0008,cave,full,bad_to_good,2,13,11863,"[13,4]",coal,1,9,diamond,4,TRUE,56,60,33,1,It was straightforward with no technical issues.,44,Daily,6,Asian,Man
P0008,overworld,partial,null,0,1,4871,[],iron,3,14,diamond,4,FALSE,59,8,34,1,It was straightforward with no technical issues.,44,Daily,6,Asian,Man
P0008,deep,full,null,0,11,6649,[],diamond,4,3,diamond,4,FALSE,63,0,35,1,It was straightforward with no technical issues.,44,Daily,6,Asian,Man
P0008,overworld,partial,null,0,13,2764,[],diamond,4,3,iron,3,FALSE,67,0,36,1,It was straightforward with no technical issues.,44,Daily,6,Asian,Man
P0008,deep,partial,null,2,7,4907,"[6,7]",none,0,4,diamond,4,FALSE,67,100,37,1,It was straightforward with no technical issues.,44,Daily,6,Asian,Man
P0008,deep,partial,null,2,16,9954,"[16,4]",diamond,4,6,diamond,4,FALSE,71,0,38,1,It was straightforward with no technical issues.,44,Daily,6,Asian,Man
P0008,overworld,partial,null,8,13,19016,"[1,4,16,13,3,9,8,14]",none,0,11,diamond,4,FALSE,71,100,39,1,It was straightforward with no technical issues.,44,Daily,6,Asian,Man
P0008,cave,full,good_to_bad,2,13,7527,"[16,13]",iron,3,12,diamond,4,FALSE,74,0,40,1,It was straightforward with no technical issues.,44,Daily,6,Asian,Man
P0008,overworld,partial,null,8,13,10062,"[13,4,1,16,11,6,12,9]",diamond,4,9,diamond,4,TRUE,78,0,41,1,It was straightforward with no technical issues.,44,Daily,6,Asian,Man
P0008,cave,full,null,0,16,4666,[],none,0,4,diamond,4,FALSE,78,100,42,1,It was straightforward with no technical issues.,44,Daily,6,Asian,Man
P0008,deep,full,good_to_bad,8,13,8396,"[3,7,11,15,16,12,8,13]",iron,3,10,diamond,4,FALSE,81,0,43,1,It was straightforward with no technical issues.,44,Daily,6,Asian,Man
P0008,overworld,partial,null,8,16,9984,"[2,1,15,16,4,3,14,13]",copper,2,14,diamond,4,FALSE,83,20,44,1,It was straightforward with no technical issues.,44,Daily,6,Asian,Man
P0008,overworld,partial,null,0,4,4009,[],none,0,13,iron,3,FALSE,83,100,45,1,It was straightforward with no technical issues.,44,Daily,6,Asian,Man
P0008,cave,partial,null,8,15,9596,"[1,4,16,13,14,15,2,3]",iron,3,10,diamond,4,FALSE,86,0,46,1,It was straightforward with no technical issues.,44,Daily,6,Asian,Man
P0008,overworld,full,null,0,1,2687,[],copper,2,8,diamond,4,FALSE,88,17,47,1,It was straightforward with no technical issues.,44,Daily,6,Asian,Man
P0008,deep,full,good_to_bad,2,11,7811,"[11,15]",diamond,4,10,diamond,4,TRUE,92,0,48,1,It was straightforward with no technical issues.,44,Daily,6,Asian,Man
P0008,overworld,full,good_to_bad,8,4,10787,"[4,16,13,1,6,11,3,2]",iron,3,12,diamond,4,FALSE,95,0,49,1,It was straightforward with no technical issues.,44,Daily,6,Asian,Man
P0008,deep,full,null,0,16,3938,[],diamond,4,10,diamond,4,FALSE,99,0,50,1,It was straightforward with no technical issues.,44,Daily,6,Asian,Man
P0008,deep,partial,null,2,4,7617,"[4,13]",diamond,4,1,diamond,4,FALSE,103,0,51,1,It was straightforward with no technical issues.,44,Daily,6,Asian,Man
P0008,deep,full,null,0,7,7841,[],copper,2,5,diamond,4,FALSE,105,22,52,1,It was straightforward with no technical issues.,44,Daily,6,Asian,Man
P0008,cave,partial,null,2,6,4136,"[6,11]",none,0,3,diamond,4,FALSE,105,100,53,1,It was straightforward with no technical issues.,44,Daily,6,Asian,Man
P0008,deep,full,bad_to_good,2,1,7843,"[1,16]",copper,2,11,diamond,4,FALSE,107,77,54,1,It was straightforward with no technical issues.,44,Daily,6,Asian,Man
P0008,deep,partial,null,0,16,2431,[],iron,3,1,diamond,4,FALSE,110,2,55,1,It was straightforward with no technical issues.,44,Daily,6,Asian,Man
P0008,cave,partial,null,0,8,2707,[],none,0,4,diamond,4,TRUE,110,100,56,1,It was straightforward with no technical issues.,44,Daily,6,Asian,Man
P0008,deep,partial,null,8,13,11815,"[1,2,13,14,15,16,3,4]",diamond,4,3,diamond,4,FALSE,114,0,57,1,It was straightforward with no technical issues.,44,Daily,6,Asian,Man
P0008,cave,full,bad_to_good,2,13,7624,"[4,13]",none,0,6,diamond,4,FALSE,114,100,58,1,It was straightforward with no technical issues.,44,Daily,6,Asian,Man
P0008,deep,full,bad_to_good,8,1,9239,"[1,2,11,12,15,16,6,5]",none,0,8,diamond,4,FALSE,114,100,59,1,It was straightforward with no technical issues.,44,Daily,6,Asian,Man
P0008,overworld,full,bad_to_good,8,16,5854,"[4,8,12,16,15,11,7,3]",diamond,4,6,diamond,4,FALSE,118,0,60,1,It was straightforward with no technical issues.,44,Daily,6,Asian,Man
P0008,deep,partial,null,2,4,5066,"[16,4]",copper,2,5,diamond,4,FALSE,120,10,61,1,It was straightforward with no technical issues.,44,Daily,6,Asian,Man
P0008,cave,partial,null,0,16,2559,[],none,0,11,diamond,4,FALSE,120,100,62,1,It was straightforward with no technical issues.,44,Daily,6,Asian,Man
P0008,deep,partial,null,8,4,12128,"[13,9,4,8,6,1,11,16]",iron,3,1,diamond,4,FALSE,123,0,63,1,It was straightforward with no technical issues.,44,Daily,6,Asian,Man
P0008,deep,full,good_to_bad,8,8,11491,"[6,7,11,10,8,12,16,15]",diamond,4,5,iron,3,FALSE,127,0,64,1,It was straightforward with no technical issues.,44,Daily,6,Asian,Man
P0008,overworld,full,bad_to_good,8,16,8856,"[1,5,9,13,3,7,11,16]",none,0,13,diamond,4,FALSE,127,100,65,1,It was straightforward with no technical issues.,44,Daily,6,Asian,Man
P0008,cave,partial,null,0,7,4419,[],none,0,1,diamond,4,FALSE,127,100,66,1,It was straightforward with no technical issues.,44,Daily,6,Asian,Man
P0009,deep,full,null,0,9,10361,[],diamond,4,5,diamond,4,TRUE,4,0,1,1,,26,Never,5,White,Man
P0009,deep,full,null,0,16,721,[],iron,3,11,diamond,4,FALSE,7,38,2,1,,26,Never,5,White,Man
P0009,cave,partial,null,2,3,12859,"[3,9]",diamond,4,10,iron,3,FALSE,11,0,3,1,,26,Never,5,White,Man
P0009,deep,full,good_to_bad,8,10,31498,"[13,10,5,7,16,2,4,12]",diamond,4,3,diamond,4,FALSE,15,0,4,1,,26,Never,5,White,Man
P0009,cave,full,null,0,15,1156,[],diamond,4,14,diamond,4,TRUE,19,0,5,1,,26,Never,5,White,Man
P0009,overworld,full,null,0,2,685,[],none,0,6,diamond,4,TRUE,19,71,6,1,,26,Never,5,White,Man
P0009,cave,partial,null,8,6,5590,"[11,1,6,13,9,8,3,7]",coal,1,9,diamond,4,FALSE,20,59,7,1,,26,Never,5,White,Man
P0009,deep,full,good_to_bad,2,11,3658,"[6,11]",coal,1,9,diamond,4,FALSE,21,75,8,1,,26,Never,5,White,Man
P0009,overworld,full,good_to_bad,2,1,3798,"[11,1]",iron,3,13,diamond,4,FALSE,24,37,9,1,,26,Never,5,White,Man
P0009,cave,full,bad_to_good,8,2,7058,"[10,6,2,12,11,7,1,16]",none,0,6,diamond,4,TRUE,24,98,10,1,,26,Never,5,White,Man
P0009,overworld,full,null,0,14,2843,[],coal,1,3,diamond,4,FALSE,25,75,11,1,,26,Never,5,White,Man
P0009,overworld,partial,null,8,12,6486,"[3,6,7,9,14,12,8,1]",diamond,4,15,diamond,4,FALSE,29,0,12,1,,26,Never,5,White,Man
P0009,cave,partial,null,0,3,605,[],copper,2,9,diamond,4,FALSE,31,52,13,1,,26,Never,5,White,Man
P0009,overworld,full,good_to_bad,8,11,5172,"[2,6,10,11,8,3,14,9]",copper,2,13,diamond,4,FALSE,33,29,14,1,,26,Never,5,White,Man
P0009,cave,full,null,0,8,3801,[],none,0,5,diamond,4,FALSE,33,100,15,1,,26,Never,5,White,Man
P0009,overworld,partial,null,8,7,7194,"[13,6,10,11,8,3,7,16]",none,0,13,diamond,4,FALSE,33,88,16,1,,26,Never,5,White,Man
P0009,cave,full,bad_to_good,2,9,11594,"[9,10]",none,0,15,diamond,4,FALSE,33,54,17,1,,26,Never,5,White,Man
P0009,deep,partial,null,2,3,3678,"[3,9]",diamond,4,2,diamond,4,TRUE,37,0,18,1,,26,Never,5,White,Man
P0009,deep,partial,null,8,11,5949,"[7,11,5,6,4,8,13,9]",diamond,4,7,diamond,4,TRUE,41,0,19,1,,26,Never,5,White,Man
P0009,overworld,partial,null,0,6,722,[],none,0,13,diamond,4,FALSE,41,87,20,1,,26,Never,5,White,Man
P0009,deep,full,good_to_bad,8,5,6070,"[6,10,11,12,16,1,5,7]",diamond,4,9,diamond,4,TRUE,45,0,21,1,,26,Never,5,White,Man
P0009,deep,full,bad_to_good,8,16,15004,"[1,2,3,7,11,10,14,16]",none,0,11,diamond,4,FALSE,45,61,22,1,,26,Never,5,White,Man
P0009,overworld,full,null,0,2,622,[],coal,1,8,copper,2,FALSE,46,52,23,1,,26,Never,5,White,Man
P0009,overworld,partial,null,2,6,2600,"[6,11]",coal,1,13,diamond,4,FALSE,47,43,24,1,,26,Never,5,White,Man
P0009,overworld,full,null,0,11,1778,[],diamond,4,13,diamond,4,FALSE,51,0,25,1,,26,Never,5,White,Man
P0009,overworld,full,bad_to_good,8,3,6294,"[1,3,4,8,11,6,5,9]",none,0,4,iron,3,TRUE,51,100,26,1,,26,Never,5,White,Man
P0009,cave,full,null,0,10,985,[],none,0,9,diamond,4,TRUE,51,80,27,1,,26,Never,5,White,Man
P0009,overworld,full,good_to_bad,8,11,5128,"[1,2,3,4,7,11,15,14]",diamond,4,13,iron,3,FALSE,55,100,28,1,,26,Never,5,White,Man
P0009,cave,partial,null,8,4,6972,"[1,6,11,16,9,10,13,4]",diamond,4,9,diamond,4,FALSE,59,0,29,1,,26,Never,5,White,Man
P0009,cave,partial,null,8,7,4418,"[7,2,6,11,4,3,8,12]",none,0,12,iron,3,FALSE,59,90,30,1,,26,Never,5,White,Man
P0009,overworld,partial,null,0,16,3482,[],copper,2,6,diamond,4,FALSE,61,60,31,1,,26,Never,5,White,Man
P0009,deep,partial,null,0,12,24255,[],iron,3,6,diamond,4,FALSE,64,69,32,1,,26,Never,5,White,Man
P0009,cave,partial,null,2,5,3225,"[5,8]",diamond,4,15,diamond,4,FALSE,68,3,33,1,,26,Never,5,White,Man
P0009,cave,partial,null,8,2,6986,"[11,6,5,10,9,14,4,2]",coal,1,10,diamond,4,FALSE,69,65,34,1,,26,Never,5,White,Man
P0009,deep,full,good_to_bad,2,6,2921,"[6,4]",diamond,4,1,diamond,4,FALSE,73,100,35,1,,26,Never,5,White,Man
P0009,cave,full,null,0,13,1282,[],diamond,4,2,diamond,4,FALSE,77,0,36,1,,26,Never,5,White,Man
P0009,cave,full,good_to_bad,8,5,7516,"[5,1,6,10,9,13,14,2]",diamond,4,4,diamond,4,FALSE,81,95,37,1,,26,Never,5,White,Man
P0009,overworld,partial,null,8,6,7364,"[4,8,3,6,9,14,11,16]",coal,1,4,iron,3,FALSE,82,62,38,1,,26,Never,5,White,Man
P0009,cave,partial,null,0,5,3093,[],coal,1,6,diamond,4,TRUE,83,76,39,1,,26,Never,5,White,Man
P0009,deep,full,null,0,7,2639,[],iron,3,6,diamond,4,TRUE,86,40,40,1,,26,Never,5,White,Man
P0009,overworld,full,bad_to_good,2,4,4677,"[4,8]",none,0,8,iron,3,TRUE,86,90,41,1,,26,Never,5,White,Man
P0009,deep,partial,null,0,12,4841,[],copper,2,14,diamond,4,FALSE,88,47,42,1,,26,Never,5,White,Man
P0009,overworld,partial,null,2,9,9694,"[4,9]",none,0,6,iron,3,FALSE,88,80,43,1,,26,Never,5,White,Man
P0009,cave,partial,null,2,10,4580,"[10,14]",iron,3,12,diamond,4,FALSE,91,19,44,1,,26,Never,5,White,Man
P0009,overworld,partial,null,8,3,6957,"[3,10,9,14,11,7,2,1]",none,0,16,iron,3,FALSE,91,98,45,1,,26,Never,5,White,Man
P0009,deep,partial,null,8,8,4543,"[1,5,9,13,4,8,12,16]",diamond,4,6,iron,3,FALSE,95,0,46,1,,26,Never,5,White,Man
P0009,overworld,partial,null,2,7,6722,"[7,6]",none,0,8,diamond,4,TRUE,95,69,47,1,,26,Never,5,White,Man
P0009,deep,partial,null,0,7,742,[],coal,1,8,diamond,4,TRUE,96,62,48,1,,26,Never,5,White,Man
P0009,cave,partial,null,2,11,4008,"[5,11]",none,0,7,diamond,4,TRUE,96,100,49,1,,26,Never,5,White,Man
P0009,cave,full,good_to_bad,2,6,2827,"[6,10]",iron,3,9,diamond,4,FALSE,99,4,50,1,,26,Never,5,White,Man
P0009,deep,full,bad_to_good,2,3,1935,"[4,3]",none,0,5,diamond,4,FALSE,99,100,51,1,,26,Never,5,White,Man
P0009,deep,full,null,0,5,642,[],none,0,7,diamond,4,FALSE,99,100,52,1,,26,Never,5,White,Man
P0009,cave,partial,null,0,14,594,[],none,0,11,diamond,4,FALSE,99,93,53,1,,26,Never,5,White,Man
P0009,deep,partial,null,2,3,9054,"[3,13]",none,0,6,diamond,4,FALSE,99,96,54,1,,26,Never,5,White,Man
P0009,deep,partial,null,8,7,5957,"[1,6,5,10,14,7,12,8]",copper,2,10,diamond,4,FALSE,101,62,55,1,,26,Never,5,White,Man
P0009,cave,full,bad_to_good,2,3,4012,"[3,10]",coal,1,5,diamond,4,FALSE,102,30,56,1,,26,Never,5,White,Man
P0009,overworld,partial,null,0,8,1493,[],none,0,15,diamond,4,FALSE,102,97,57,1,,26,Never,5,White,Man
P0009,deep,partial,null,0,15,2524,[],diamond,4,6,diamond,4,FALSE,106,0,58,1,,26,Never,5,White,Man
P0009,deep,partial,null,2,2,2213,"[4,2]",none,0,7,diamond,4,FALSE,106,95,59,1,,26,Never,5,White,Man
P0009,deep,full,bad_to_good,8,11,37607,"[5,9,6,10,7,11,8,12]",none,0,1,diamond,4,FALSE,106,100,60,1,,26,Never,5,White,Man
P0009,cave,full,bad_to_good,8,12,23243,"[4,7,2,6,10,12,15,9]",none,0,6,diamond,4,FALSE,106,100,61,1,,26,Never,5,White,Man
P0009,overworld,partial,null,2,3,6781,"[6,3]",coal,1,13,iron,3,FALSE,107,19,62,1,,26,Never,5,White,Man
P0009,deep,partial,null,8,10,5244,"[4,3,2,7,11,15,10,13]",iron,3,2,diamond,4,FALSE,110,40,63,1,,26,Never,5,White,Man
P0009,overworld,full,good_to_bad,2,3,4716,"[2,3]",coal,1,10,diamond,4,FALSE,111,34,64,1,,26,Never,5,White,Man
P0009,overworld,full,good_to_bad,2,15,2969,"[5,15]",coal,1,10,iron,3,FALSE,112,28,65,1,,26,Never,5,White,Man
P0009,cave,full,good_to_bad,2,6,2392,"[7,6]",diamond,4,9,iron,3,FALSE,116,100,66,1,,26,Never,5,White,Man
P0010,overworld,full,null,0,6,3286,[],none,0,15,diamond,4,FALSE,0,10,1,1,,21,Never,5,White,Man
P0010,overworld,partial,null,2,7,13020,"[7,10]",none,0,16,diamond,4,FALSE,0,10,2,1,,21,Never,5,White,Man
P0010,cave,partial,null,8,11,15428,"[10,11,1,4,13,16,5,9]",iron,3,6,diamond,4,FALSE,3,0,3,1,,21,Never,5,White,Man
P0010,overworld,full,good_to_bad,8,11,15235,"[11,10,16,4,1,5,9,13]",diamond,4,5,coal,1,FALSE,7,0,4,1,,21,Never,5,White,Man
P0010,overworld,partial,null,0,11,1693,[],coal,1,6,iron,3,FALSE,8,0,5,1,,21,Never,5,White,Man
P0010,overworld,partial,null,8,11,9444,"[11,15,14,9,5,2,3,8]",none,0,13,iron,3,FALSE,8,30,6,1,,21,Never,5,White,Man
P0010,deep,full,bad_to_good,8,8,7785,"[8,12,15,14,9,5,2,3]",none,0,5,diamond,4,FALSE,8,20,7,1,,21,Never,5,White,Man
P0010,cave,full,null,0,15,4829,[],copper,2,6,diamond,4,FALSE,10,0,8,1,,21,Never,5,White,Man
P0010,cave,partial,null,0,5,1684,[],copper,2,12,diamond,4,FALSE,12,0,9,1,,21,Never,5,White,Man
P0010,overworld,partial,null,0,5,959,[],none,0,7,iron,3,FALSE,12,14,10,1,,21,Never,5,White,Man
P0010,cave,full,null,0,10,3253,[],copper,2,16,diamond,4,FALSE,14,5,11,1,,21,Never,5,White,Man
P0010,deep,full,null,0,9,2290,[],diamond,4,1,diamond,4,FALSE,18,0,12,1,,21,Never,5,White,Man
P0010,overworld,partial,null,0,3,5890,[],coal,1,13,diamond,4,FALSE,19,6,13,1,,21,Never,5,White,Man
P0010,deep,full,good_to_bad,2,9,6373,"[9,5]",diamond,4,7,diamond,4,FALSE,23,0,14,1,,21,Never,5,White,Man
P0010,deep,full,null,0,9,879,[],diamond,4,7,diamond,4,FALSE,27,0,15,1,,21,Never,5,White,Man
P0010,deep,full,bad_to_good,2,9,3893,"[9,5]",coal,1,5,diamond,4,TRUE,28,34,16,1,,21,Never,5,White,Man
P0010,deep,full,bad_to_good,8,9,8614,"[5,9,2,3,8,12,15,6]",none,0,3,diamond,4,FALSE,28,68,17,1,,21,Never,5,White,Man
P0010,cave,partial,null,2,10,4614,"[8,10]",coal,1,5,diamond,4,FALSE,29,5,18,1,,21,Never,5,White,Man
P0010,deep,partial,null,2,9,4944,"[9,8]",diamond,4,2,diamond,4,FALSE,33,0,19,1,,21,Never,5,White,Man
P0010,cave,full,bad_to_good,2,16,5038,"[16,1]",none,0,10,diamond,4,FALSE,33,11,20,1,,21,Never,5,White,Man
P0010,overworld,full,good_to_bad,2,2,8014,"[2,12]",coal,1,6,diamond,4,TRUE,34,0,21,1,,21,Never,5,White,Man
P0010,overworld,full,bad_to_good,2,14,4206,"[2,14]",none,0,15,diamond,4,TRUE,34,21,22,1,,21,Never,5,White,Man
P0010,deep,full,bad_to_good,2,9,4938,"[9,2]",none,0,3,diamond,4,FALSE,34,68,23,1,,21,Never,5,White,Man
P0010,cave,partial,null,2,12,9592,"[1,12]",iron,3,3,diamond,4,FALSE,37,0,24,1,,21,Never,5,White,Man
P0010,cave,partial,null,0,8,1119,[],iron,3,10,iron,3,FALSE,40,0,25,1,,21,Never,5,White,Man
P0010,cave,full,good_to_bad,2,15,4574,"[15,3]",diamond,4,13,diamond,4,FALSE,44,0,26,1,,21,Never,5,White,Man
P0010,deep,partial,null,8,6,21921,"[2,16,4,6,12,9,15,7]",iron,3,8,diamond,4,FALSE,47,3,27,1,,21,Never,5,White,Man
P0010,cave,full,bad_to_good,8,7,11281,"[7,5,14,3,12,6,11,15]",none,0,11,diamond,4,TRUE,47,65,28,1,,21,Never,5,White,Man
P0010,deep,full,good_to_bad,2,15,13332,"[4,15]",coal,1,9,diamond,4,FALSE,48,24,29,1,,21,Never,5,White,Man
P0010,cave,full,good_to_bad,2,6,15787,"[6,11]",copper,2,3,diamond,4,FALSE,50,0,30,1,,21,Never,5,White,Man
P0010,deep,partial,null,0,11,2548,[],diamond,4,4,diamond,4,FALSE,54,0,31,1,,21,Never,5,White,Man
P0010,deep,full,null,0,11,1361,[],none,0,1,diamond,4,FALSE,54,45,32,1,,21,Never,5,White,Man
P0010,overworld,full,bad_to_good,2,11,3533,"[11,7]",none,0,14,diamond,4,FALSE,54,18,33,1,,21,Never,5,White,Man
P0010,overworld,partial,null,2,12,3835,"[12,6]",coal,1,5,diamond,4,FALSE,55,2,34,1,,21,Never,5,White,Man
P0010,cave,partial,null,2,16,4601,"[1,16]",coal,1,7,diamond,4,FALSE,56,5,35,1,,21,Never,5,White,Man
P0010,deep,partial,null,8,10,8121,"[10,2,12,8,13,5,16,3]",iron,3,8,diamond,4,FALSE,59,4,36,1,,21,Never,5,White,Man
P0010,deep,partial,null,2,8,4477,"[5,8]",diamond,4,11,diamond,4,FALSE,63,0,37,1,,21,Never,5,White,Man
P0010,cave,full,null,0,12,1983,[],none,0,5,diamond,4,FALSE,63,14,38,1,,21,Never,5,White,Man
P0010,cave,partial,null,8,3,9177,"[2,6,10,14,3,7,11,15]",coal,1,13,diamond,4,FALSE,64,10,39,1,,21,Never,5,White,Man
P0010,overworld,full,good_to_bad,8,4,9754,"[4,13,7,10,1,6,11,16]",diamond,4,12,iron,3,FALSE,68,0,40,1,,21,Never,5,White,Man
P0010,deep,partial,null,0,14,1484,[],diamond,4,4,diamond,4,FALSE,72,0,41,1,,21,Never,5,White,Man
P0010,overworld,partial,null,8,4,9271,"[4,7,1,6,13,11,10,16]",none,0,15,diamond,4,FALSE,72,9,42,1,,21,Never,5,White,Man
P0010,cave,partial,null,2,6,4491,"[6,12]",none,0,3,iron,3,FALSE,72,34,43,1,,21,Never,5,White,Man
P0010,cave,partial,null,8,6,9795,"[1,4,13,10,6,5,9,8]",none,0,10,diamond,4,TRUE,72,10,44,1,,21,Never,5,White,Man
P0010,deep,partial,null,0,2,1561,[],none,0,12,diamond,4,FALSE,72,67,45,1,,21,Never,5,White,Man
P0010,deep,partial,null,8,2,9709,"[2,6,11,15,13,9,8,4]",none,0,7,diamond,4,FALSE,72,93,46,1,,21,Never,5,White,Man
P0010,cave,full,null,0,1,604,[],none,0,9,diamond,4,FALSE,72,24,47,1,,21,Never,5,White,Man
P0010,cave,partial,null,0,12,1826,[],iron,3,8,diamond,4,TRUE,75,0,48,1,,21,Never,5,White,Man
P0010,overworld,full,null,0,1,818,[],coal,1,15,iron,3,FALSE,76,0,49,1,,21,Never,5,White,Man
P0010,overworld,partial,null,2,10,15759,"[4,10]",coal,1,13,diamond,4,FALSE,77,0,50,1,,21,Never,5,White,Man
P0010,overworld,full,null,0,5,936,[],coal,1,9,diamond,4,TRUE,78,0,51,1,,21,Never,5,White,Man
P0010,cave,full,good_to_bad,2,6,3302,"[6,11]",diamond,4,9,diamond,4,FALSE,82,0,52,1,,21,Never,5,White,Man
P0010,overworld,full,good_to_bad,8,7,8272,"[9,3,7,11,6,1,2,12]",iron,3,13,iron,3,FALSE,85,0,53,1,,21,Never,5,White,Man
P0010,cave,full,good_to_bad,8,6,6536,"[2,8,5,14,16,11,6,4]",diamond,4,5,iron,3,TRUE,89,0,54,1,,21,Never,5,White,Man
P0010,deep,full,good_to_bad,8,7,6837,"[7,8,11,12,15,16,3,6]",diamond,4,4,diamond,4,FALSE,93,0,55,1,,21,Never,5,White,Man
P0010,overworld,partial,null,8,10,9805,"[4,3,1,5,7,8,10,14]",none,0,12,diamond,4,FALSE,93,2,56,1,,21,Never,5,White,Man
P0010,overworld,partial,null,2,10,3432,"[10,6]",iron,3,13,diamond,4,FALSE,96,0,57,1,,21,Never,5,White,Man
P0010,deep,partial,null,2,16,4900,"[16,12]",diamond,4,1,diamond,4,FALSE,100,0,58,1,,21,Never,5,White,Man
P0010,cave,full,good_to_bad,8,7,10639,"[7,6,10,11,5,8,12,9]",diamond,4,3,diamond,4,TRUE,104,0,59,1,,21,Never,5,White,Man
P0010,overworld,full,bad_to_good,8,7,10713,"[8,15,6,13,2,11,7,10]",none,0,11,iron,3,TRUE,104,27,60,1,,21,Never,5,White,Man
P0010,overworld,partial,null,0,4,906,[],none,0,13,diamond,4,FALSE,104,0,61,1,,21,Never,5,White,Man
P0010,deep,full,bad_to_good,8,10,10034,"[1,5,9,13,14,15,10,12]",none,0,5,diamond,4,FALSE,104,89,62,1,,21,Never,5,White,Man
P0010,overworld,full,null,0,6,888,[],none,0,16,iron,3,FALSE,104,5,63,1,,21,Never,5,White,Man
P0010,deep,partial,null,0,3,1126,[],diamond,4,16,diamond,4,FALSE,108,0,64,1,,21,Never,5,White,Man
P0010,deep,partial,null,8,16,7403,"[2,6,10,16,14,12,13,11]",diamond,4,11,diamond,4,FALSE,112,0,65,1,,21,Never,5,White,Man
P0010,cave,partial,null,8,3,5824,"[4,7,11,15,10,6,2,3]",none,0,5,diamond,4,FALSE,112,5,66,1,,21,Never,5,White,Man
P0011,overworld,full,null,0,15,3748,[],copper,2,16,diamond,4,TRUE,2,0,1,1,Thanks for the survey! looking forward to more!,27,Several_times_per_week,7,American Indian or Alaska Native,Man
P0011,overworld,full,bad_to_good,2,7,2132,"[7,11]",none,0,10,diamond,4,FALSE,2,100,2,1,Thanks for the survey! looking forward to more!,27,Several_times_per_week,7,American Indian or Alaska Native,Man
P0011,overworld,partial,null,0,12,2112,[],diamond,4,14,diamond,4,FALSE,6,0,3,1,Thanks for the survey! looking forward to more!,27,Several_times_per_week,7,American Indian or Alaska Native,Man
P0011,cave,full,good_to_bad,2,2,3453,"[2,1]",copper,2,10,diamond,4,FALSE,8,0,4,1,Thanks for the survey! looking forward to more!,27,Several_times_per_week,7,American Indian or Alaska Native,Man
P0011,deep,full,good_to_bad,8,7,4577,"[8,7,3,4,2,6,1,5]",diamond,4,13,diamond,4,FALSE,12,0,5,1,Thanks for the survey! looking forward to more!,27,Several_times_per_week,7,American Indian or Alaska Native,Man
P0011,overworld,full,null,0,12,2532,[],copper,2,7,diamond,4,FALSE,14,0,6,1,Thanks for the survey! looking forward to more!,27,Several_times_per_week,7,American Indian or Alaska Native,Man
P0011,cave,full,bad_to_good,8,7,3884,"[4,3,7,2,6,1,5,8]",none,0,2,diamond,4,FALSE,14,100,7,1,Thanks for the survey! looking forward to more!,27,Several_times_per_week,7,American Indian or Alaska Native,Man
P0011,overworld,partial,null,0,7,267,[],none,0,10,diamond,4,FALSE,14,100,8,1,Thanks for the survey! looking forward to more!,27,Several_times_per_week,7,American Indian or Alaska Native,Man
P0011,deep,partial,null,0,7,518,[],copper,2,5,diamond,4,FALSE,16,0,9,1,Thanks for the survey! looking forward to more!,27,Several_times_per_week,7,American Indian or Alaska Native,Man
P0011,overworld,partial,null,2,11,1780,"[12,11]",coal,1,15,diamond,4,TRUE,17,0,10,1,Thanks for the survey! looking forward to more!,27,Several_times_per_week,7,American Indian or Alaska Native,Man
P0011,cave,partial,null,2,11,1840,"[11,7]",copper,2,13,diamond,4,FALSE,19,0,11,1,Thanks for the survey! looking forward to more!,27,Several_times_per_week,7,American Indian or Alaska Native,Man
P0011,overworld,partial,null,0,16,362,[],diamond,4,6,diamond,4,FALSE,23,0,12,1,Thanks for the survey! looking forward to more!,27,Several_times_per_week,7,American Indian or Alaska Native,Man
P0011,deep,partial,null,8,7,3362,"[12,10,9,5,6,7,11,8]",copper,2,8,diamond,4,TRUE,25,0,13,1,Thanks for the survey! looking forward to more!,27,Several_times_per_week,7,American Indian or Alaska Native,Man
P0011,cave,full,good_to_bad,2,2,2067,"[6,2]",copper,2,9,iron,3,FALSE,27,0,14,1,Thanks for the survey! looking forward to more!,27,Several_times_per_week,7,American Indian or Alaska Native,Man
P0011,cave,partial,null,8,3,4487,"[7,2,6,1,5,4,8,3]",none,0,8,diamond,4,FALSE,27,100,15,1,Thanks for the survey! looking forward to more!,27,Several_times_per_week,7,American Indian or Alaska Native,Man
P0011,cave,partial,null,2,3,2485,"[7,3]",none,0,13,diamond,4,FALSE,27,100,16,1,Thanks for the survey! looking forward to more!,27,Several_times_per_week,7,American Indian or Alaska Native,Man
P0011,cave,partial,null,2,7,3867,"[8,7]",none,0,4,diamond,4,FALSE,27,100,17,1,Thanks for the survey! looking forward to more!,27,Several_times_per_week,7,American Indian or Alaska Native,Man
P0011,deep,full,good_to_bad,8,7,2927,"[4,3,7,2,6,1,5,8]",diamond,4,9,diamond,4,FALSE,31,0,18,1,Thanks for the survey! looking forward to more!,27,Several_times_per_week,7,American Indian or Alaska Native,Man
P0011,overworld,full,null,0,16,198,[],iron,3,12,diamond,4,TRUE,34,0,19,1,Thanks for the survey! looking forward to more!,27,Several_times_per_week,7,American Indian or Alaska Native,Man
P0011,cave,partial,null,2,6,2116,"[5,6]",copper,2,7,diamond,4,TRUE,36,0,20,1,Thanks for the survey! looking forward to more!,27,Several_times_per_week,7,American Indian or Alaska Native,Man
P0011,cave,full,bad_to_good,2,6,2284,"[6,5]",coal,1,2,diamond,4,TRUE,37,0,21,1,Thanks for the survey! looking forward to more!,27,Several_times_per_week,7,American Indian or Alaska Native,Man
P0011,deep,partial,null,2,7,1497,"[11,7]",iron,3,2,diamond,4,FALSE,40,0,22,1,Thanks for the survey! looking forward to more!,27,Several_times_per_week,7,American Indian or Alaska Native,Man
P0011,cave,partial,null,0,9,682,[],copper,2,1,iron,3,FALSE,42,0,23,1,Thanks for the survey! looking forward to more!,27,Several_times_per_week,7,American Indian or Alaska Native,Man
P0011,overworld,partial,null,8,3,3593,"[9,10,6,5,2,1,3,7]",none,0,16,iron,3,FALSE,42,100,24,1,Thanks for the survey! looking forward to more!,27,Several_times_per_week,7,American Indian or Alaska Native,Man
P0011,cave,full,null,0,12,1285,[],coal,1,6,iron,3,FALSE,43,0,25,1,Thanks for the survey! looking forward to more!,27,Several_times_per_week,7,American Indian or Alaska Native,Man
P0011,deep,partial,null,8,7,3532,"[6,5,2,1,3,7,4,8]",iron,3,3,diamond,4,TRUE,46,0,26,1,Thanks for the survey! looking forward to more!,27,Several_times_per_week,7,American Indian or Alaska Native,Man
P0011,overworld,partial,null,2,6,1975,"[2,6]",coal,1,13,iron,3,FALSE,47,0,27,1,Thanks for the survey! looking forward to more!,27,Several_times_per_week,7,American Indian or Alaska Native,Man
P0011,deep,partial,null,2,7,2102,"[6,7]",diamond,4,5,diamond,4,FALSE,51,0,28,1,Thanks for the survey! looking forward to more!,27,Several_times_per_week,7,American Indian or Alaska Native,Man
P0011,cave,full,null,0,12,1573,[],iron,3,5,diamond,4,FALSE,54,0,29,1,Thanks for the survey! looking forward to more!,27,Several_times_per_week,7,American Indian or Alaska Native,Man
P0011,overworld,full,good_to_bad,2,7,2044,"[7,6]",coal,1,8,iron,3,TRUE,55,0,30,1,Thanks for the survey! looking forward to more!,27,Several_times_per_week,7,American Indian or Alaska Native,Man
P0011,cave,full,bad_to_good,2,6,2431,"[2,6]",copper,2,12,diamond,4,FALSE,57,0,31,1,Thanks for the survey! looking forward to more!,27,Several_times_per_week,7,American Indian or Alaska Native,Man
P0011,cave,full,null,0,11,1001,[],none,0,5,diamond,4,FALSE,57,100,32,1,Thanks for the survey! looking forward to more!,27,Several_times_per_week,7,American Indian or Alaska Native,Man
P0011,cave,partial,null,8,3,3911,"[6,5,2,1,3,7,4,8]",copper,2,6,diamond,4,FALSE,59,0,33,1,Thanks for the survey! looking forward to more!,27,Several_times_per_week,7,American Indian or Alaska Native,Man
P0011,cave,partial,null,0,7,2465,[],none,0,10,diamond,4,FALSE,59,100,34,1,Thanks for the survey! looking forward to more!,27,Several_times_per_week,7,American Indian or Alaska Native,Man
P0011,cave,full,bad_to_good,8,3,3038,"[5,2,6,1,3,7,4,8]",none,0,2,diamond,4,TRUE,59,100,35,1,Thanks for the survey! looking forward to more!,27,Several_times_per_week,7,American Indian or Alaska Native,Man
P0011,cave,full,bad_to_good,8,6,3190,"[7,3,8,4,2,1,5,6]",iron,3,10,diamond,4,TRUE,62,0,36,1,Thanks for the survey! looking forward to more!,27,Several_times_per_week,7,American Indian or Alaska Native,Man
P0011,cave,partial,null,8,2,3876,"[7,3,2,1,5,6,10,9]",copper,2,12,iron,3,FALSE,64,0,37,1,Thanks for the survey! looking forward to more!,27,Several_times_per_week,7,American Indian or Alaska Native,Man
P0011,overworld,partial,null,2,2,1704,"[6,2]",none,0,14,diamond,4,FALSE,64,100,38,1,Thanks for the survey! looking forward to more!,27,Several_times_per_week,7,American Indian or Alaska Native,Man
P0011,deep,partial,null,2,3,2016,"[4,3]",none,0,4,diamond,4,TRUE,64,100,39,1,Thanks for the survey! looking forward to more!,27,Several_times_per_week,7,American Indian or Alaska Native,Man
P0011,overworld,full,null,0,8,272,[],coal,1,13,diamond,4,FALSE,65,0,40,1,Thanks for the survey! looking forward to more!,27,Several_times_per_week,7,American Indian or Alaska Native,Man
P0011,overworld,partial,null,8,3,4247,"[7,6,2,5,3,4,8,1]",copper,2,12,diamond,4,FALSE,67,0,41,1,Thanks for the survey! looking forward to more!,27,Several_times_per_week,7,American Indian or Alaska Native,Man
P0011,deep,full,null,0,6,485,[],none,0,7,diamond,4,TRUE,67,0,42,1,Thanks for the survey! looking forward to more!,27,Several_times_per_week,7,American Indian or Alaska Native,Man
P0011,overworld,full,bad_to_good,8,3,2926,"[6,10,7,11,8,12,4,3]",none,0,13,diamond,4,FALSE,67,100,43,1,Thanks for the survey! looking forward to more!,27,Several_times_per_week,7,American Indian or Alaska Native,Man
P0011,cave,full,good_to_bad,8,3,2662,"[3,4,8,7,2,6,1,5]",copper,2,10,diamond,4,FALSE,69,0,44,1,Thanks for the survey! looking forward to more!,27,Several_times_per_week,7,American Indian or Alaska Native,Man
P0011,deep,partial,null,2,3,1918,"[2,3]",diamond,4,6,diamond,4,FALSE,73,0,45,1,Thanks for the survey! looking forward to more!,27,Several_times_per_week,7,American Indian or Alaska Native,Man
P0011,overworld,partial,null,8,3,3012,"[6,5,2,1,3,7,4,8]",none,0,12,diamond,4,FALSE,73,100,46,1,Thanks for the survey! looking forward to more!,27,Several_times_per_week,7,American Indian or Alaska Native,Man
P0011,deep,partial,null,8,3,3166,"[6,2,1,5,3,7,4,8]",coal,1,7,diamond,4,TRUE,74,0,47,1,Thanks for the survey! looking forward to more!,27,Several_times_per_week,7,American Indian or Alaska Native,Man
P0011,overworld,full,good_to_bad,8,7,6258,"[4,3,7,2,6,1,5,8]",copper,2,16,diamond,4,FALSE,76,0,48,1,Thanks for the survey! looking forward to more!,27,Several_times_per_week,7,American Indian or Alaska Native,Man
P0011,deep,full,good_to_bad,8,3,4070,"[4,2,6,1,5,3,7,8]",copper,2,9,diamond,4,FALSE,78,0,49,1,Thanks for the survey! looking forward to more!,27,Several_times_per_week,7,American Indian or Alaska Native,Man
P0011,deep,partial,null,8,3,3828,"[2,6,1,5,7,4,8,3]",none,0,6,diamond,4,FALSE,78,100,50,1,Thanks for the survey! looking forward to more!,27,Several_times_per_week,7,American Indian or Alaska Native,Man
P0011,deep,full,null,0,4,296,[],diamond,4,5,diamond,4,FALSE,82,0,51,1,Thanks for the survey! looking forward to more!,27,Several_times_per_week,7,American Indian or Alaska Native,Man
P0011,deep,partial,null,0,7,786,[],copper,2,6,diamond,4,TRUE,84,0,52,1,Thanks for the survey! looking forward to more!,27,Several_times_per_week,7,American Indian or Alaska Native,Man
P0011,overworld,partial,null,0,2,759,[],none,0,5,coal,1,FALSE,84,100,53,1,Thanks for the survey! looking forward to more!,27,Several_times_per_week,7,American Indian or Alaska Native,Man
P0011,deep,full,good_to_bad,2,2,2400,"[6,2]",diamond,4,4,diamond,4,FALSE,88,0,54,1,Thanks for the survey! looking forward to more!,27,Several_times_per_week,7,American Indian or Alaska Native,Man
P0011,cave,partial,null,0,7,889,[],iron,3,16,diamond,4,FALSE,91,0,55,1,Thanks for the survey! looking forward to more!,27,Several_times_per_week,7,American Indian or Alaska Native,Man
P0011,cave,partial,null,8,3,32990,"[6,2,1,5,3,7,4,8]",copper,2,2,iron,3,TRUE,93,0,56,1,Thanks for the survey! looking forward to more!,27,Several_times_per_week,7,American Indian or Alaska Native,Man
P0011,overworld,full,bad_to_good,8,2,3244,"[3,2,6,1,5,7,8,4]",none,0,16,diamond,4,FALSE,93,100,57,1,Thanks for the survey! looking forward to more!,27,Several_times_per_week,7,American Indian or Alaska Native,Man
P0011,deep,full,null,0,3,2844,[],none,0,6,diamond,4,FALSE,93,100,58,1,Thanks for the survey! looking forward to more!,27,Several_times_per_week,7,American Indian or Alaska Native,Man
P0011,deep,full,bad_to_good,8,3,5234,"[2,1,5,6,7,4,8,3]",none,0,5,diamond,4,FALSE,93,100,59,1,Thanks for the survey! looking forward to more!,27,Several_times_per_week,7,American Indian or Alaska Native,Man
P0011,deep,full,bad_to_good,2,2,2359,"[2,1]",copper,2,1,diamond,4,TRUE,95,0,60,1,Thanks for the survey! looking forward to more!,27,Several_times_per_week,7,American Indian or Alaska Native,Man
P0011,deep,full,good_to_bad,2,2,1720,"[1,2]",copper,2,5,diamond,4,FALSE,97,0,61,1,Thanks for the survey! looking forward to more!,27,Several_times_per_week,7,American Indian or Alaska Native,Man
P0011,overworld,full,good_to_bad,2,7,14008,"[7,6]",coal,1,9,diamond,4,FALSE,98,0,62,1,Thanks for the survey! looking forward to more!,27,Several_times_per_week,7,American Indian or Alaska Native,Man
P0011,overworld,full,good_to_bad,8,3,3162,"[2,1,5,6,7,3,4,8]",iron,3,9,diamond,4,FALSE,101,0,63,1,Thanks for the survey! looking forward to more!,27,Several_times_per_week,7,American Indian or Alaska Native,Man
P0011,overworld,partial,null,8,3,2914,"[3,2,6,1,5,7,8,4]",none,0,16,diamond,4,FALSE,101,100,64,1,Thanks for the survey! looking forward to more!,27,Several_times_per_week,7,American Indian or Alaska Native,Man
P0011,deep,full,bad_to_good,2,2,3113,"[1,2]",none,0,6,diamond,4,TRUE,101,100,65,1,Thanks for the survey! looking forward to more!,27,Several_times_per_week,7,American Indian or Alaska Native,Man
P0011,deep,partial,null,0,7,1474,[],none,0,4,diamond,4,FALSE,101,100,66,1,Thanks for the survey! looking forward to more!,27,Several_times_per_week,7,American Indian or Alaska Native,Man
