prolific_pid,biome,feedback,comparison_type,salience_count,choice,choice_rt,consider_set,outcome_kind,outcome_value,best_alt_block,best_alt_kind,best_alt_value,best_alt_adjacent,xp,regret,trial_index,comp_tries_to_pass,comments,age,minecraft_freq_1mo,performance_satisfaction,race,gender
P0002,cave,partial,null,0,6,2386,[],none,0,9,diamond,4,FALSE,0,100,1,1,,21,Several_times_per_week,7,Black or African American,Woman
P0002,deep,full,bad_to_good,2,14,8696,"[4,14]",coal,1,3,diamond,4,FALSE,1,100,2,1,,21,Several_times_per_week,7,Black or African American,Woman
P0002,overworld,partial,null,0,8,2680,[],coal,1,13,diamond,4,FALSE,2,0,3,1,,21,Several_times_per_week,7,Black or African American,Woman
P0002,overworld,partial,null,2,13,7466,"[3,13]",diamond,4,14,iron,3,TRUE,6,0,4,1,,21,Several_times_per_week,7,Black or African American,Woman
P0002,cave,full,null,0,15,2508,[],copper,2,3,diamond,4,FALSE,8,0,5,1,,21,Several_times_per_week,7,Black or African American,Woman
P0002,overworld,partial,null,0,16,1176,[],coal,1,10,diamond,4,FALSE,9,0,6,1,,21,Several_times_per_week,7,Black or African American,Woman
P0002,overworld,full,bad_to_good,2,4,6872,"[4,13]",coal,1,13,diamond,4,FALSE,10,100,7,1,,21,Several_times_per_week,7,Black or African American,Woman
P0002,overworld,full,bad_to_good,8,12,7961,"[3,5,15,12,9,4,1,13]",diamond,4,6,diamond,4,FALSE,14,0,8,1,,21,Several_times_per_week,7,Black or African American,Woman
P0002,overworld,full,null,0,8,3603,[],none,0,11,diamond,4,FALSE,14,100,9,1,,21,Several_times_per_week,7,Black or African American,Woman
P0002,overworld,full,null,0,14,1104,[],none,0,15,iron,3,TRUE,14,100,10,1,,21,Several_times_per_week,7,Black or African American,Woman
P0002,cave,partial,null,0,4,39837,[],none,0,9,diamond,4,FALSE,14,100,11,1,,21,Several_times_per_week,7,Black or African American,Woman
P0002,deep,partial,null,2,1,3846,"[16,1]",iron,3,9,diamond,4,FALSE,17,0,12,1,,21,Several_times_per_week,7,Black or African American,Woman
P0002,deep,partial,null,8,3,7464,"[4,9,5,1,16,11,3,13]",none,0,4,diamond,4,TRUE,17,100,13,1,,21,Several_times_per_week,7,Black or African American,Woman
P0002,deep,full,null,0,16,1071,[],copper,2,10,diamond,4,FALSE,19,0,14,1,,21,Several_times_per_week,7,Black or African American,Woman
P0002,deep,full,good_to_bad,8,4,7848,"[4,1,13,16,3,2,14,15]",diamond,4,8,diamond,4,TRUE,23,0,15,1,,21,Several_times_per_week,7,Black or African American,Woman
P0002,overworld,partial,null,2,5,3023,"[3,5]",none,0,12,diamond,4,FALSE,23,100,16,1,,21,Several_times_per_week,7,Black or African American,Woman
P0002,deep,partial,null,0,3,2711,[],none,0,1,diamond,4,FALSE,23,100,17,1,,21,Several_times_per_week,7,Black or African American,Woman
P0002,cave,full,bad_to_good,2,3,2679,"[4,3]",none,0,9,diamond,4,FALSE,23,100,18,1,,21,Several_times_per_week,7,Black or African American,Woman
P0002,deep,partial,null,0,15,685,[],diamond,4,14,diamond,4,TRUE,27,0,19,1,,21,Several_times_per_week,7,Black or African American,Woman
P0002,deep,partial,null,8,7,8754,"[1,6,11,16,13,10,7,4]",diamond,4,1,diamond,4,FALSE,31,0,20,1,,21,Several_times_per_week,7,Black or African American,Woman
P0002,deep,full,good_to_bad,8,7,16679,"[3,1,6,11,16,13,10,7]",diamond,4,8,diamond,4,TRUE,35,0,21,1,,21,Several_times_per_week,7,Black or African American,Woman
P0002,overworld,partial,null,0,4,1911,[],none,0,12,diamond,4,FALSE,35,100,22,1,,21,Several_times_per_week,7,Black or African American,Woman
P0002,deep,partial,null,2,2,6625,"[3,2]",copper,2,3,diamond,4,TRUE,37,0,23,1,,21,Several_times_per_week,7,Black or African American,Woman
P0002,overworld,partial,null,8,6,7800,"[12,4,2,1,9,14,10,6]",coal,1,16,diamond,4,FALSE,38,0,24,1,,21,Several_times_per_week,7,Black or African American,Woman
P0002,cave,partial,null,0,4,1240,[],none,0,9,diamond,4,FALSE,38,100,25,1,,21,Several_times_per_week,7,Black or African American,Woman
P0002,deep,full,null,0,7,1376,[],coal,1,9,diamond,4,FALSE,39,0,26,1,,21,Several_times_per_week,7,Black or African American,Woman
P0002,cave,full,good_to_bad,8,7,11884,"[4,7,10,6,11,13,1,16]",diamond,4,15,diamond,4,FALSE,43,0,27,1,,21,Several_times_per_week,7,Black or African American,Woman
P0002,deep,partial,null,8,1,6759,"[1,10,6,7,11,4,16,13]",coal,1,6,diamond,4,FALSE,44,0,28,1,,21,Several_times_per_week,7,Black or African American,Woman
P0002,cave,full,good_to_bad,8,7,6411,"[1,6,7,11,10,13,16,4]",iron,3,8,diamond,4,TRUE,47,0,29,1,,21,Several_times_per_week,7,Black or African American,Woman
P0002,cave,partial,null,2,11,5026,"[2,11]",none,0,15,diamond,4,TRUE,47,100,30,1,,21,Several_times_per_week,7,Black or African American,Woman
P0002,cave,full,null,0,7,1066,[],none,0,6,diamond,4,TRUE,47,100,31,1,,21,Several_times_per_week,7,Black or African American,Woman
P0002,deep,full,bad_to_good,8,4,6500,"[4,7,11,10,6,1,13,16]",copper,2,1,diamond,4,FALSE,49,100,32,1,,21,Several_times_per_week,7,Black or African American,Woman
P0002,cave,partial,null,8,11,6638,"[1,6,7,11,10,13,16,4]",none,0,10,diamond,4,TRUE,49,100,33,1,,21,Several_times_per_week,7,Black or African American,Woman
P0002,overworld,full,null,0,14,1590,[],none,0,3,iron,3,FALSE,49,100,34,1,,21,Several_times_per_week,7,Black or African American,Woman
P0002,overworld,full,null,0,8,1690,[],none,0,9,diamond,4,FALSE,49,100,35,1,,21,Several_times_per_week,7,Black or African American,Woman
P0002,overworld,partial,null,8,10,5924,"[4,7,6,10,11,1,16,13]",none,0,9,diamond,4,TRUE,49,100,36,1,,21,Several_times_per_week,7,Black or African American,Woman
P0002,overworld,partial,null,2,4,3107,"[4,13]",none,0,10,iron,3,FALSE,49,100,37,1,,21,Several_times_per_week,7,Black or African American,Woman
P0002,cave,partial,null,8,4,6455,"[16,11,6,1,4,7,10,13]",coal,1,9,diamond,4,FALSE,50,0,38,1,,21,Several_times_per_week,7,Black or African American,Woman
P0002,cave,partial,null,2,10,3770,"[3,10]",iron,3,12,diamond,4,FALSE,53,0,39,1,,21,Several_times_per_week,7,Black or African American,Woman
P0002,overworld,full,good_to_bad,2,3,4097,"[3,14]",coal,1,7,diamond,4,TRUE,54,0,40,1,,21,Several_times_per_week,7,Black or African American,Woman
P0002,cave,partial,null,0,11,1079,[],none,0,13,diamond,4,FALSE,54,100,41,1,,21,Several_times_per_week,7,Black or African American,Woman
P0002,deep,full,bad_to_good,2,15,4403,"[6,15]",coal,1,9,diamond,4,FALSE,55,0,42,1,,21,Several_times_per_week,7,Black or African American,Woman
P0002,deep,full,bad_to_good,2,6,4125,"[1,6]",copper,2,11,diamond,4,FALSE,57,0,43,1,,21,Several_times_per_week,7,Black or African American,Woman
P0002,overworld,full,good_to_bad,2,10,4203,"[2,10]",copper,2,14,diamond,4,TRUE,59,0,44,1,,21,Several_times_per_week,7,Black or African American,Woman
P0002,cave,full,good_to_bad,8,7,6245,"[4,7,6,10,11,13,16,1]",diamond,4,1,iron,3,FALSE,63,0,45,1,,21,Several_times_per_week,7,Black or African American,Woman
P0002,overworld,partial,null,8,7,8286,"[4,7,6,10,11,1,13,16]",iron,3,9,diamond,4,FALSE,66,0,46,1,,21,Several_times_per_week,7,Black or African American,Woman
P0002,overworld,partial,null,2,16,6920,"[6,16]",diamond,4,12,diamond,4,TRUE,70,0,47,1,,21,Several_times_per_week,7,Black or African American,Woman
P0002,deep,partial,null,2,10,4471,"[6,10]",iron,3,9,diamond,4,TRUE,73,0,48,1,,21,Several_times_per_week,7,Black or African American,Woman
P0002,deep,full,null,0,8,4601,[],copper,2,12,diamond,4,TRUE,75,0,49,1,,21,Several_times_per_week,7,Black or African American,Woman
P0002,overworld,full,good_to_bad,8,7,8803,"[4,7,6,10,11,16,13,1]",copper,2,14,iron,3,FALSE,77,0,50,1,,21,Several_times_per_week,7,Black or African American,Woman
P0002,cave,partial,null,8,7,7134,"[4,7,11,10,6,1,13,16]",iron,3,8,diamond,4,TRUE,80,0,51,1,,21,Several_times_per_week,7,Black or African American,Woman
P0002,cave,full,null,0,4,1091,[],coal,1,13,diamond,4,FALSE,81,0,52,1,,21,Several_times_per_week,7,Black or African American,Woman
P0002,cave,partial,null,2,10,3665,"[4,10]",coal,1,15,diamond,4,FALSE,82,0,53,1,,21,Several_times_per_week,7,Black or African American,Woman
P0002,deep,full,good_to_bad,8,10,6155,"[4,7,11,10,6,13,1,16]",diamond,4,2,diamond,4,FALSE,86,0,54,1,,21,Several_times_per_week,7,Black or African American,Woman
P0002,overworld,full,good_to_bad,8,7,6110,"[4,7,6,10,11,16,13,1]",iron,3,14,diamond,4,FALSE,89,0,55,1,,21,Several_times_per_week,7,Black or African American,Woman
P0002,cave,partial,null,2,4,3115,"[4,10]",diamond,4,5,diamond,4,FALSE,93,0,56,1,,21,Several_times_per_week,7,Black or African American,Woman
P0002,overworld,full,bad_to_good,8,7,6001,"[7,11,10,6,1,4,16,13]",none,0,14,diamond,4,FALSE,93,100,57,1,,21,Several_times_per_week,7,Black or African American,Woman
P0002,overworld,partial,null,8,4,7494,"[4,7,6,10,11,1,13,16]",none,0,15,diamond,4,FALSE,93,100,58,1,,21,Several_times_per_week,7,Black or African American,Woman
P0002,cave,full,bad_to_good,2,11,3317,"[3,11]",none,0,12,diamond,4,TRUE,93,100,59,1,,21,Several_times_per_week,7,Black or African American,Woman
P0002,deep,partial,null,2,7,4357,"[4,7]",none,0,1,diamond,4,FALSE,93,100,60,1,,21,Several_times_per_week,7,Black or African American,Woman
P0002,cave,full,good_to_bad,2,7,3347,"[7,13]",copper,2,5,diamond,4,FALSE,95,0,61,1,,21,Several_times_per_week,7,Black or African American,Woman
P0002,deep,partial,null,0,10,2496,[],none,0,5,diamond,4,FALSE,95,100,62,1,,21,Several_times_per_week,7,Black or African American,Woman
P0002,deep,partial,null,0,4,1369,[],iron,3,3,diamond,4,TRUE,98,0,63,1,,21,Several_times_per_week,7,Black or African American,Woman
P0002,cave,full,good_to_bad,2,9,4289,"[4,9]",iron,3,5,diamond,4,TRUE,101,0,64,1,,21,Several_times_per_week,7,Black or African American,Woman
P0002,deep,full,bad_to_good,2,15,4293,"[3,15]",copper,2,6,diamond,4,FALSE,103,0,65,1,,21,Several_times_per_week,7,Black or African American,Woman
P0002,cave,full,null,0,12,1743,[],diamond,4,14,diamond,4,FALSE,107,0,66,1,,21,Several_times_per_week,7,Black or African American,Woman
P0003,overworld,full,good_to_bad,8,6,18885,"[2,3,6,7,10,11,14,15]",diamond,4,5,diamond,4,TRUE,4,0,1,1,,35,Never,6,White,Man
P0003,cave,full,null,0,7,5600,[],coal,1,5,diamond,4,FALSE,5,19,2,1,,35,Never,6,White,Man
P0003,overworld,partial,null,0,10,2906,[],copper,2,9,diamond,4,TRUE,7,14,3,1,,35,Never,6,White,Man
P0003,cave,full,bad_to_good,2,8,9742,"[8,12]",none,0,1,diamond,4,FALSE,7,6,4,1,,35,Never,6,White,Man
P0003,deep,partial,null,0,16,2115,[],none,0,1,diamond,4,FALSE,7,45,5,1,,35,Never,6,White,Man
P0003,deep,partial,null,8,14,7654,"[13,9,10,14,11,15,16,12]",none,0,3,diamond,4,FALSE,7,42,6,1,,35,Never,6,White,Man
P0003,deep,partial,null,2,2,5246,"[2,3]",diamond,4,4,diamond,4,FALSE,11,0,7,1,,35,Never,6,White,Man
P0003,overworld,partial,null,2,6,4575,"[6,10]",diamond,4,13,diamond,4,FALSE,15,0,8,1,,35,Never,6,White,Man
P0003,cave,partial,null,0,7,3986,[],iron,3,10,diamond,4,FALSE,18,10,9,1,,35,Never,6,White,Man
P0003,cave,partial,null,8,7,7378,"[7,11,6,10,5,9,8,12]",copper,2,8,diamond,4,TRUE,20,17,10,1,,35,Never,6,White,Man
P0003,overworld,full,bad_to_good,2,6,5694,"[6,10]",copper,2,10,iron,3,TRUE,22,18,11,1,,35,Never,6,White,Man
P0003,overworld,full,bad_to_good,2,6,5327,"[6,7]",coal,1,11,iron,3,FALSE,23,8,12,1,,35,Never,6,White,Man
P0003,deep,full,good_to_bad,8,13,9249,"[1,4,16,13,10,7,6,11]",diamond,4,8,diamond,4,FALSE,27,0,13,1,,35,Never,6,White,Man
P0003,cave,partial,null,2,8,4292,"[8,12]",none,0,4,iron,3,TRUE,27,38,14,1,,35,Never,6,White,Man
P0003,deep,full,null,0,14,3096,[],iron,3,9,diamond,4,FALSE,30,2,15,1,,35,Never,6,White,Man
P0003,deep,partial,null,0,9,1494,[],iron,3,1,diamond,4,FALSE,33,0,16,1,,35,Never,6,White,Man
P0003,cave,partial,null,0,5,4800,[],none,0,15,diamond,4,FALSE,33,22,17,1,,35,Never,6,White,Man
P0003,cave,partial,null,2,7,3667,"[6,7]",copper,2,13,diamond,4,FALSE,35,20,18,1,,35,Never,6,White,Man
P0003,deep,partial,null,8,1,7414,"[10,11,4,1,7,6,13,16]",none,0,12,diamond,4,FALSE,35,45,19,1,,35,Never,6,White,Man
P0003,deep,full,bad_to_good,8,12,7018,"[2,3,8,12,9,5,14,15]",copper,2,6,diamond,4,FALSE,37,39,20,1,,35,Never,6,White,Man
P0003,overworld,full,null,0,6,1985,[],coal,1,14,diamond,4,FALSE,38,24,21,1,,35,Never,6,White,Man
P0003,cave,full,good_to_bad,8,12,6588,"[5,6,7,8,12,16,15,14]",iron,3,10,iron,3,FALSE,41,6,22,1,,35,Never,6,White,Man
P0003,deep,full,null,0,3,1527,[],none,0,7,diamond,4,TRUE,41,47,23,1,,35,Never,6,White,Man
P0003,cave,full,good_to_bad,8,8,5420,"[2,3,4,8,12,15,14,9]",iron,3,16,diamond,4,FALSE,44,1,24,1,,35,Never,6,White,Man
P0003,cave,partial,null,2,3,3219,"[2,3]",none,0,16,iron,3,FALSE,44,51,25,1,,35,Never,6,White,Man
P0003,cave,partial,null,0,1,908,[],copper,2,13,diamond,4,FALSE,46,10,26,1,,35,Never,6,White,Man
P0003,deep,partial,null,0,7,1114,[],iron,3,2,diamond,4,FALSE,49,2,27,1,,35,Never,6,White,Man
P0003,deep,full,null,0,1,986,[],copper,2,10,diamond,4,FALSE,51,17,28,1,,35,Never,6,White,Man
P0003,deep,partial,null,2,3,10775,"[2,3]",copper,2,2,diamond,4,TRUE,53,14,29,1,,35,Never,6,White,Man
P0003,overworld,full,good_to_bad,8,8,6043,"[3,4,8,11,16,15,14,13]",diamond,4,9,iron,3,FALSE,57,0,30,1,,35,Never,6,White,Man
P0003,overworld,partial,null,8,11,9807,"[2,1,12,11,15,16,4,8]",iron,3,5,iron,3,FALSE,60,7,31,1,,35,Never,6,White,Man
P0003,overworld,partial,null,2,6,6575,"[6,8]",none,0,7,diamond,4,TRUE,60,46,32,1,,35,Never,6,White,Man
P0003,overworld,partial,null,0,11,1831,[],none,0,10,diamond,4,TRUE,60,45,33,1,,35,Never,6,White,Man
P0003,cave,partial,null,8,6,8591,"[10,6,8,7,11,12,9,5]",diamond,4,8,diamond,4,FALSE,64,0,34,1,,35,Never,6,White,Man
P0003,deep,partial,null,8,7,10861,"[2,4,7,8,11,14,15,10]",diamond,4,12,diamond,4,FALSE,68,0,35,1,,35,Never,6,White,Man
P0003,deep,full,good_to_bad,2,2,3848,"[1,2]",diamond,4,10,diamond,4,FALSE,72,0,36,1,,35,Never,6,White,Man
P0003,overworld,full,null,0,6,10409,[],coal,1,10,diamond,4,TRUE,73,37,37,1,,35,Never,6,White,Man
P0003,overworld,partial,null,8,3,5433,"[2,3,8,7,11,12,16,15]",none,0,9,diamond,4,FALSE,73,59,38,1,,35,Never,6,White,Man
P0003,overworld,full,null,0,2,6005,[],none,0,14,diamond,4,FALSE,73,51,39,1,,35,Never,6,White,Man
P0003,deep,full,good_to_bad,8,6,4143,"[6,2,3,4,8,7,11,12]",diamond,4,5,diamond,4,TRUE,77,0,40,1,,35,Never,6,White,Man
P0003,deep,full,bad_to_good,8,3,4351,"[6,7,10,11,9,5,4,3]",none,0,2,diamond,4,TRUE,77,37,41,1,,35,Never,6,White,Man
P0003,deep,partial,null,8,9,5333,"[5,9,1,2,3,4,8,12]",diamond,4,3,diamond,4,FALSE,81,0,42,1,,35,Never,6,White,Man
P0003,cave,full,good_to_bad,2,3,2784,"[3,4]",diamond,4,10,diamond,4,FALSE,85,0,43,1,,35,Never,6,White,Man
P0003,overworld,partial,null,0,1,1743,[],coal,1,6,iron,3,FALSE,86,36,44,1,,35,Never,6,White,Man
P0003,cave,full,bad_to_good,2,3,4886,"[3,4]",none,0,9,diamond,4,FALSE,86,45,45,1,,35,Never,6,White,Man
P0003,cave,partial,null,8,6,8225,"[1,13,16,4,7,6,10,11]",diamond,4,15,diamond,4,FALSE,90,0,46,1,,35,Never,6,White,Man
P0003,overworld,full,good_to_bad,8,6,4376,"[2,6,7,8,12,11,15,16]",copper,2,1,coal,1,FALSE,92,22,47,1,,35,Never,6,White,Man
P0003,cave,full,bad_to_good,2,3,14629,"[2,3]",none,0,7,diamond,4,TRUE,92,57,48,1,,35,Never,6,White,Man
P0003,overworld,partial,null,0,1,3431,[],none,0,6,iron,3,FALSE,92,57,49,1,,35,Never,6,White,Man
P0003,overworld,partial,null,8,2,6165,"[2,7,6,3,10,11,15,14]",none,0,1,diamond,4,TRUE,92,49,50,1,,35,Never,6,White,Man
P0003,overworld,full,bad_to_good,2,6,3271,"[6,7]",coal,1,5,iron,3,TRUE,93,44,51,1,,35,Never,6,White,Man
P0003,overworld,full,bad_to_good,2,6,8377,"[2,6]",none,0,13,diamond,4,FALSE,93,49,52,1,,35,Never,6,White,Man
P0003,overworld,full,good_to_bad,8,6,4494,"[6,2,3,4,8,7,11,10]",diamond,4,9,diamond,4,FALSE,97,0,53,1,,35,Never,6,White,Man
P0003,cave,full,good_to_bad,8,6,3946,"[6,5,1,2,3,7,8,4]",diamond,4,2,iron,3,TRUE,101,0,54,1,,35,Never,6,White,Man
P0003,deep,full,bad_to_good,2,6,14256,"[2,6]",none,0,3,diamond,4,FALSE,101,34,55,1,,35,Never,6,White,Man
P0003,cave,partial,null,2,6,2721,"[5,6]",copper,2,9,diamond,4,FALSE,103,18,56,1,,35,Never,6,White,Man
P0003,cave,full,null,0,5,903,[],coal,1,12,diamond,4,FALSE,104,43,57,1,,35,Never,6,White,Man
P0003,deep,full,bad_to_good,2,6,7161,"[2,6]",none,0,2,diamond,4,TRUE,104,36,58,1,,35,Never,6,White,Man
P0003,deep,partial,null,0,6,1268,[],iron,3,8,diamond,4,FALSE,107,11,59,1,,35,Never,6,White,Man
P0003,cave,partial,null,0,6,3863,[],copper,2,14,diamond,4,FALSE,109,12,60,1,,35,Never,6,White,Man
P0003,cave,full,bad_to_good,8,6,4970,"[6,7,8,12,11,10,9,5]",none,0,14,diamond,4,FALSE,109,26,61,1,,35,Never,6,White,Man
P0003,deep,partial,null,2,6,9261,"[6,7]",none,0,8,diamond,4,FALSE,109,48,62,1,,35,Never,6,White,Man
P0003,deep,full,good_to_bad,2,6,10165,"[2,6]",diamond,4,5,diamond,4,TRUE,113,0,63,1,,35,Never,6,White,Man
P0003,cave,full,null,0,2,1818,[],copper,2,9,diamond,4,FALSE,115,11,64,1,,35,Never,6,White,Man
P0003,overworld,partial,null,2,6,2810,"[2,6]",coal,1,5,diamond,4,TRUE,116,42,65,1,,35,Never,6,White,Man
P0003,overworld,partial,null,2,6,3505,"[2,6]",coal,1,3,diamond,4,FALSE,117,45,66,1,,35,Never,6,White,Man
P0004,cave,full,null,0,10,2610,[],none,0,12,diamond,4,FALSE,0,100,1,4,,23,Daily,7,Black or African American,Man
P0004,overworld,partial,null,0,8,1057,[],none,0,13,iron,3,FALSE,0,100,2,4,,23,Daily,7,Black or African American,Man
P0004,overworld,partial,null,2,16,8525,"[16,9]",iron,3,15,iron,3,TRUE,3,0,3,4,,23,Daily,7,Black or African American,Man
P0004,cave,partial,null,0,2,584,[],none,0,9,diamond,4,FALSE,3,100,4,4,,23,Daily,7,Black or African American,Man
P0004,overworld,full,bad_to_good,2,7,6747,"[3,7]",none,0,16,diamond,4,FALSE,3,100,5,4,,23,Daily,7,Black or African American,Man
P0004,cave,partial,null,2,1,3781,"[1,16]",diamond,4,14,diamond,4,FALSE,7,0,6,4,,23,Daily,7,Black or African American,Man
P0004,overworld,partial,null,8,8,11240,"[9,1,2,3,15,12,16,8]",none,0,13,diamond,4,FALSE,7,100,7,4,,23,Daily,7,Black or African American,Man
P0004,deep,full,bad_to_good,2,15,5060,"[10,15]",copper,2,10,diamond,4,FALSE,9,100,8,4,,23,Daily,7,Black or African American,Man
P0004,cave,full,bad_to_good,8,6,37563,"[4,7,10,13,1,6,11,16]",none,0,5,diamond,4,TRUE,9,100,9,4,,23,Daily,7,Black or African American,Man
P0004,cave,full,good_to_bad,2,7,3284,"[7,10]",copper,2,11,diamond,4,TRUE,11,0,10,4,,23,Daily,7,Black or African American,Man
P0004,deep,full,bad_to_good,2,6,3585,"[6,11]",coal,1,9,diamond,4,FALSE,12,100,11,4,,23,Daily,7,Black or African American,Man
P0004,overworld,partial,null,2,7,4542,"[7,10]",iron,3,6,iron,3,TRUE,15,0,12,4,,23,Daily,7,Black or African American,Man
P0004,overworld,full,bad_to_good,8,10,8801,"[10,7,4,1,6,16,13,11]",none,0,3,diamond,4,FALSE,15,100,13,4,,23,Daily,7,Black or African American,Man
P0004,deep,partial,null,2,16,2649,"[11,16]",diamond,4,9,diamond,4,FALSE,19,0,14,4,,23,Daily,7,Black or African American,Man
P0004,deep,partial,null,0,10,12475,[],none,0,6,diamond,4,TRUE,19,100,15,4,,23,Daily,7,Black or African American,Man
P0004,overworld,full,bad_to_good,2,4,10558,"[4,10]",coal,1,16,diamond,4,FALSE,20,100,16,4,,23,Daily,7,Black or African American,Man
P0004,overworld,full,bad_to_good,8,1,6047,"[4,7,10,13,1,6,11,16]",none,0,8,diamond,4,FALSE,20,100,17,4,,23,Daily,7,Black or African American,Man
P0004,deep,full,null,0,14,593,[],coal,1,9,diamond,4,FALSE,21,100,18,4,,23,Daily,7,Black or African American,Man
P0004,cave,partial,null,2,7,2642,"[7,12]",none,0,5,diamond,4,FALSE,21,100,19,4,,23,Daily,7,Black or African American,Man
P0004,deep,partial,null,0,6,2939,[],diamond,4,9,diamond,4,FALSE,25,0,20,4,,23,Daily,7,Black or African American,Man
P0004,overworld,full,null,0,2,690,[],none,0,14,diamond,4,FALSE,25,100,21,4,,23,Daily,7,Black or African American,Man
P0004,deep,partial,null,2,11,3314,"[11,15]",diamond,4,2,diamond,4,FALSE,29,0,22,4,,23,Daily,7,Black or African American,Man
P0004,cave,full,good_to_bad,2,9,7027,"[5,9]",copper,2,8,diamond,4,FALSE,31,0,23,4,,23,Daily,7,Black or African American,Man
P0004,deep,partial,null,8,10,8351,"[5,10,7,4,12,16,15,6]",none,0,9,diamond,4,TRUE,31,100,24,4,,23,Daily,7,Black or African American,Man
P0004,deep,partial,null,0,6,908,[],diamond,4,11,diamond,4,FALSE,35,0,25,4,,23,Daily,7,Black or African American,Man
P0004,overworld,partial,null,8,7,9997,"[7,4,2,1,6,11,15,10]",none,0,14,iron,3,FALSE,35,98,26,4,,23,Daily,7,Black or African American,Man
P0004,deep,partial,null,2,6,2836,"[10,6]",none,0,2,diamond,4,TRUE,35,69,27,4,,23,Daily,7,Black or African American,Man
P0004,cave,full,null,0,2,939,[],none,0,7,diamond,4,FALSE,35,100,28,4,,23,Daily,7,Black or African American,Man
P0004,overworld,full,null,0,2,870,[],coal,1,16,iron,3,FALSE,36,3,29,4,,23,Daily,7,Black or African American,Man
P0004,cave,full,bad_to_good,8,4,5962,"[6,11,1,16,4,7,10,14]",none,0,7,diamond,4,FALSE,36,100,30,4,,23,Daily,7,Black or African American,Man
P0004,overworld,full,good_to_bad,2,7,5825,"[4,7]",diamond,4,13,diamond,4,FALSE,40,0,31,4,,23,Daily,7,Black or African American,Man
P0004,overworld,full,good_to_bad,2,11,2658,"[6,11]",coal,1,9,diamond,4,FALSE,41,0,32,4,,23,Daily,7,Black or African American,Man
P0004,cave,full,good_to_bad,2,6,8169,"[2,6]",coal,1,1,diamond,4,FALSE,42,0,33,4,,23,Daily,7,Black or African American,Man
P0004,cave,partial,null,8,10,9872,"[4,6,10,1,11,16,14,7]",copper,2,1,diamond,4,FALSE,44,0,34,4,,23,Daily,7,Black or African American,Man
P0004,cave,partial,null,2,10,2413,"[7,10]",none,0,9,diamond,4,TRUE,44,100,35,4,,23,Daily,7,Black or African American,Man
P0004,overworld,partial,null,8,11,6035,"[6,11,1,16,4,7,10,13]",copper,2,15,copper,2,TRUE,46,0,36,4,,23,Daily,7,Black or African American,Man
P0004,overworld,full,good_to_bad,8,11,5108,"[6,3,4,8,7,2,11,16]",diamond,4,14,diamond,4,FALSE,50,0,37,4,,23,Daily,7,Black or African American,Man
P0004,deep,partial,null,0,6,1683,[],none,0,3,diamond,4,FALSE,50,95,38,4,,23,Daily,7,Black or African American,Man
P0004,deep,partial,null,8,11,6226,"[4,7,10,13,1,6,16,11]",none,0,8,diamond,4,FALSE,50,100,39,4,,23,Daily,7,Black or African American,Man
P0004,overworld,partial,null,8,7,5151,"[4,7,10,13,3,11,15,2]",none,0,10,diamond,4,FALSE,50,100,40,4,,23,Daily,7,Black or African American,Man
P0004,deep,partial,null,8,10,17600,"[4,7,10,13,1,6,11,16]",iron,3,7,diamond,4,FALSE,53,0,41,4,,23,Daily,7,Black or African American,Man
P0004,cave,partial,null,8,11,6374,"[3,6,11,16,1,4,7,10]",diamond,4,1,iron,3,FALSE,57,0,42,4,,23,Daily,7,Black or African American,Man
P0004,cave,full,null,0,4,1889,[],copper,2,6,diamond,4,FALSE,59,0,43,4,,23,Daily,7,Black or African American,Man
P0004,deep,full,good_to_bad,8,7,18941,"[4,7,10,13,1,6,11,16]",diamond,4,1,iron,3,FALSE,63,0,44,4,,23,Daily,7,Black or African American,Man
P0004,deep,full,null,0,11,6466,[],none,0,4,diamond,4,FALSE,63,52,45,4,,23,Daily,7,Black or African American,Man
P0004,deep,full,null,0,7,1294,[],none,0,5,diamond,4,FALSE,63,100,46,4,,23,Daily,7,Black or African American,Man
P0004,deep,full,bad_to_good,2,7,13061,"[4,7]",none,0,6,diamond,4,TRUE,63,100,47,4,,23,Daily,7,Black or African American,Man
P0004,overworld,partial,null,0,6,2611,[],copper,2,16,diamond,4,FALSE,65,0,48,4,,23,Daily,7,Black or African American,Man
P0004,overworld,full,null,0,7,1256,[],none,0,15,diamond,4,FALSE,65,100,49,4,,23,Daily,7,Black or African American,Man
P0004,deep,full,good_to_bad,2,10,3007,"[6,10]",diamond,4,9,diamond,4,TRUE,69,0,50,4,,23,Daily,7,Black or African American,Man
P0004,overworld,full,null,0,1,1352,[],none,0,13,diamond,4,FALSE,69,0,51,4,,23,Daily,7,Black or African American,Man
P0004,deep,full,null,0,10,3098,[],copper,2,7,diamond,4,FALSE,71,64,52,4,,23,Daily,7,Black or African American,Man
P0004,cave,partial,null,8,6,6198,"[6,4,3,2,1,5,7,8]",copper,2,12,diamond,4,FALSE,73,7,53,4,,23,Daily,7,Black or African American,Man
P0004,cave,partial,null,0,7,17402,[],none,0,2,diamond,4,FALSE,73,0,54,4,,23,Daily,7,Black or African American,Man
P0004,cave,partial,null,2,6,4511,"[6,11]",copper,2,2,diamond,4,TRUE,75,0,55,4,,23,Daily,7,Black or African American,Man
P0004,deep,full,good_to_bad,8,9,29983,"[4,8,12,16,1,5,9,13]",diamond,4,5,iron,3,TRUE,79,0,56,4,,23,Daily,7,Black or African American,Man
P0004,cave,partial,null,8,7,8406,"[4,7,10,13,16,12,3,8]",copper,2,15,diamond,4,FALSE,81,0,57,4,,23,Daily,7,Black or African American,Man
P0004,overworld,partial,null,2,8,25614,"[4,8]",none,0,9,diamond,4,FALSE,81,100,58,4,,23,Daily,7,Black or African American,Man
P0004,deep,full,good_to_bad,8,7,12794,"[4,7,10,13,1,6,11,16]",diamond,4,8,diamond,4,TRUE,85,0,59,4,,23,Daily,7,Black or African American,Man
P0004,cave,full,null,0,7,1245,[],copper,2,16,diamond,4,FALSE,87,0,60,4,,23,Daily,7,Black or African American,Man
P0004,cave,partial,null,0,2,1876,[],copper,2,12,diamond,4,FALSE,89,0,61,4,,23,Daily,7,Black or African American,Man
P0004,deep,partial,null,2,7,3995,"[7,6]",iron,3,3,diamond,4,TRUE,92,0,62,4,,23,Daily,7,Black or African American,Man
P0004,cave,full,good_to_bad,8,11,21661,"[5,6,7,8,12,11,14,13]",diamond,4,9,diamond,4,FALSE,96,0,63,4,,23,Daily,7,Black or African American,Man
P0004,overworld,partial,null,0,5,1505,[],none,0,14,diamond,4,FALSE,96,100,64,4,,23,Daily,7,Black or African American,Man
P0004,overworld,partial,null,0,11,2651,[],none,0,8,diamond,4,FALSE,96,100,65,4,,23,Daily,7,Black or African American,Man
P0004,cave,full,good_to_bad,8,3,6778,"[6,1,11,16,4,10,13,3]",diamond,4,15,diamond,4,FALSE,100,0,66,4,,23,Daily,7,Black or African American,Man
P0005,cave,full,good_to_bad,8,16,18643,"[9,10,11,12,16,15,14,13]",diamond,4,5,diamond,4,FALSE,4,0,1,1,,35,Never,5,White,Woman
P0005,cave,full,null,0,9,4764,[],none,0,11,diamond,4,FALSE,4,100,2,1,,35,Never,5,White,Woman
P0005,deep,partial,null,0,14,3212,[],diamond,4,2,diamond,4,FALSE,8,0,3,1,,35,Never,5,White,Woman
P0005,overworld,full,good_to_bad,8,15,15209,"[9,10,11,12,16,15,14,13]",diamond,4,2,copper,2,FALSE,12,0,4,1,,35,Never,5,White,Woman
P0005,cave,full,null,0,16,4835,[],none,0,12,diamond,4,TRUE,12,100,5,1,,35,Never,5,White,Woman
P0005,overworld,partial,null,2,15,11513,"[14,15]",none,0,16,diamond,4,TRUE,12,100,6,1,,35,Never,5,White,Woman
P0005,cave,partial,null,0,13,2505,[],iron,3,12,iron,3,FALSE,15,25,7,1,,35,Never,5,White,Woman
P0005,cave,partial,null,2,14,10122,"[13,14]",iron,3,5,diamond,4,FALSE,18,25,8,1,,35,Never,5,White,Woman
P0005,deep,full,bad_to_good,2,16,7550,"[15,16]",none,0,7,diamond,4,FALSE,18,100,9,1,,35,Never,5,White,Woman
P0005,overworld,full,null,0,11,6723,[],none,0,15,copper,2,TRUE,18,100,10,1,,35,Never,5,White,Woman
P0005,deep,full,null,0,10,3294,[],diamond,4,2,diamond,4,FALSE,22,0,11,1,,35,Never,5,White,Woman
P0005,cave,full,bad_to_good,2,13,8640,"[13,16]",none,0,5,diamond,4,FALSE,22,100,12,1,,35,Never,5,White,Woman
P0005,overworld,full,bad_to_good,2,15,13567,"[12,15]",none,0,9,diamond,4,FALSE,22,80,13,1,,35,Never,5,White,Woman
P0005,cave,full,null,0,14,3139,[],diamond,4,3,diamond,4,FALSE,26,0,14,1,,35,Never,5,White,Woman
P0005,deep,full,good_to_bad,2,10,7330,"[10,15]",coal,1,1,diamond,4,FALSE,27,20,15,1,,35,Never,5,White,Woman
P0005,cave,partial,null,0,11,3639,[],none,0,2,diamond,4,FALSE,27,100,16,1,,35,Never,5,White,Woman
P0005,deep,partial,null,8,16,25087,"[9,10,12,11,16,15,14,13]",diamond,4,2,diamond,4,FALSE,31,0,17,1,,35,Never,5,White,Woman
P0005,cave,partial,null,8,10,13309,"[5,6,7,8,12,11,10,9]",none,0,2,diamond,4,FALSE,31,100,18,1,,35,Never,5,White,Woman
P0005,overworld,full,good_to_bad,8,13,37546,"[13,9,10,15,11,12,16,14]",diamond,4,7,iron,3,FALSE,35,0,19,1,,35,Never,5,White,Woman
P0005,cave,full,null,0,12,9765,[],coal,1,10,diamond,4,FALSE,36,80,20,1,,35,Never,5,White,Woman
P0005,cave,partial,null,2,15,7423,"[10,15]",diamond,4,8,diamond,4,FALSE,40,0,21,1,,35,Never,5,White,Woman
P0005,overworld,partial,null,0,9,8196,[],none,0,11,diamond,4,FALSE,40,100,22,1,,35,Never,5,White,Woman
P0005,deep,partial,null,0,13,12075,[],iron,3,4,diamond,4,FALSE,43,20,23,1,,35,Never,5,White,Woman
P0005,deep,partial,null,2,12,12526,"[16,12]",none,0,4,diamond,4,FALSE,43,100,24,1,,35,Never,5,White,Woman
P0005,deep,partial,null,2,15,7238,"[14,15]",diamond,4,7,diamond,4,FALSE,47,0,25,1,,35,Never,5,White,Woman
P0005,deep,full,bad_to_good,2,13,12771,"[13,12]",none,0,4,diamond,4,FALSE,47,90,26,1,,35,Never,5,White,Woman
P0005,deep,full,null,0,15,2571,[],iron,3,10,diamond,4,FALSE,50,10,27,1,,35,Never,5,White,Woman
P0005,deep,partial,null,8,10,9273,"[9,10,11,12,8,7,6,5]",coal,1,1,diamond,4,FALSE,51,75,28,1,,35,Never,5,White,Woman
P0005,deep,partial,null,8,13,13291,"[9,13,10,11,12,16,15,14]",none,0,1,diamond,4,FALSE,51,100,29,1,,35,Never,5,White,Woman
P0005,cave,partial,null,0,14,9220,[],iron,3,8,diamond,4,FALSE,54,15,30,1,,35,Never,5,White,Woman
P0005,overworld,partial,null,8,12,6369,"[9,5,6,7,8,12,11,10]",none,0,10,diamond,4,FALSE,54,100,31,1,,35,Never,5,White,Woman
P0005,overworld,full,good_to_bad,2,14,6723,"[13,14]",diamond,4,16,diamond,4,FALSE,58,0,32,1,,35,Never,5,White,Woman
P0005,overworld,full,bad_to_good,8,16,19805,"[9,10,11,12,16,15,14,13]",none,0,3,diamond,4,FALSE,58,100,33,1,,35,Never,5,White,Woman
P0005,overworld,partial,null,8,13,10160,"[9,13,10,14,11,15,12,16]",copper,2,10,diamond,4,FALSE,60,40,34,1,,35,Never,5,White,Woman
P0005,overworld,full,null,0,11,6930,[],none,0,12,iron,3,TRUE,60,100,35,1,,35,Never,5,White,Woman
P0005,overworld,partial,null,2,14,4732,"[14,15]",none,0,13,diamond,4,TRUE,60,100,36,1,,35,Never,5,White,Woman
P0005,overworld,partial,null,8,9,16894,"[9,13,10,14,11,15,12,16]",none,0,12,diamond,4,FALSE,60,100,37,1,,35,Never,5,White,Woman
P0005,deep,full,null,0,11,2378,[],diamond,4,2,diamond,4,FALSE,64,0,38,1,,35,Never,5,White,Woman
P0005,deep,full,good_to_bad,8,11,26145,"[5,9,6,10,7,8,12,11]",diamond,4,14,diamond,4,FALSE,68,0,39,1,,35,Never,5,White,Woman
P0005,cave,full,good_to_bad,8,13,15711,"[13,9,10,14,15,11,12,16]",diamond,4,3,diamond,4,FALSE,72,0,40,1,,35,Never,5,White,Woman
P0005,overworld,partial,null,0,16,14060,[],none,0,9,diamond,4,FALSE,72,100,41,1,,35,Never,5,White,Woman
P0005,overworld,partial,null,2,10,12857,"[10,15]",iron,3,6,diamond,4,TRUE,75,20,42,1,,35,Never,5,White,Woman
P0005,deep,full,null,0,16,3992,[],iron,3,7,diamond,4,FALSE,78,20,43,1,,35,Never,5,White,Woman
P0005,cave,full,good_to_bad,2,15,25596,"[16,15]",iron,3,12,diamond,4,FALSE,81,0,44,1,,35,Never,5,White,Woman
P0005,overworld,partial,null,0,10,6335,[],coal,1,9,diamond,4,TRUE,82,85,45,1,,35,Never,5,White,Woman
P0005,cave,partial,null,8,15,16939,"[9,13,14,10,15,11,12,16]",coal,1,10,diamond,4,FALSE,83,80,46,1,,35,Never,5,White,Woman
P0005,overworld,full,null,0,10,3172,[],none,0,14,iron,3,TRUE,83,100,47,1,,35,Never,5,White,Woman
P0005,cave,full,bad_to_good,8,12,7471,"[9,13,10,14,11,15,12,16]",none,0,13,diamond,4,FALSE,83,100,48,1,,35,Never,5,White,Woman
P0005,overworld,partial,null,2,11,161110,"[14,11]",diamond,4,13,iron,3,FALSE,87,0,49,1,,35,Never,5,White,Woman
P0005,cave,partial,null,8,15,10748,"[13,14,15,16,12,11,9,10]",diamond,4,11,diamond,4,TRUE,91,0,50,1,,35,Never,5,White,Woman
P0005,overworld,full,null,0,11,3136,[],none,0,4,copper,2,FALSE,91,100,51,1,,35,Never,5,White,Woman
P0005,cave,full,good_to_bad,8,13,25381,"[9,13,10,14,11,15,12,16]",diamond,4,7,diamond,4,FALSE,95,0,52,1,,35,Never,5,White,Woman
P0005,cave,full,bad_to_good,2,12,5676,"[12,16]",copper,2,8,diamond,4,TRUE,97,10,53,1,,35,Never,5,White,Woman
P0005,cave,partial,null,8,9,31462,"[5,9,6,10,7,11,8,12]",none,0,12,diamond,4,FALSE,97,100,54,1,,35,Never,5,White,Woman
P0005,deep,partial,null,2,16,5178,"[13,16]",coal,1,1,diamond,4,FALSE,98,80,55,1,,35,Never,5,White,Woman
P0005,overworld,full,bad_to_good,8,10,35826,"[9,13,10,14,11,15,12,16]",none,0,13,diamond,4,FALSE,98,100,56,1,,35,Never,5,White,Woman
P0005,deep,full,good_to_bad,2,15,3344,"[15,16]",diamond,4,6,diamond,4,FALSE,102,0,57,1,,35,Never,5,White,Woman
P0005,deep,full,good_to_bad,8,13,18757,"[9,13,10,14,11,15,12,16]",diamond,4,5,diamond,4,FALSE,106,0,58,1,,35,Never,5,White,Woman
P0005,deep,full,good_to_bad,8,12,15590,"[9,13,10,11,15,14,12,16]",diamond,4,2,diamond,4,FALSE,110,0,59,1,,35,Never,5,White,Woman
P0005,cave,partial,null,2,14,4440,"[13,14]",iron,3,7,diamond,4,FALSE,113,20,60,1,,35,Never,5,White,Woman
P0005,deep,partial,null,0,11,6346,[],coal,1,1,diamond,4,FALSE,114,85,61,1,,35,Never,5,White,Woman
P0005,deep,partial,null,0,15,3672,[],diamond,4,1,diamond,4,FALSE,118,0,62,1,,35,Never,5,White,Woman
P0005,deep,partial,null,2,9,5662,"[9,13]",coal,1,7,diamond,4,FALSE,119,85,63,1,,35,Never,5,White,Woman
P0005,cave,partial,null,0,13,3694,[],none,0,11,diamond,4,FALSE,119,100,64,1,,35,Never,5,White,Woman
P0005,overworld,partial,null,0,10,2200,[],none,0,13,diamond,4,FALSE,119,100,65,1,,35,Never,5,White,Woman
P0005,overworld,full,bad_to_good,2,14,6587,"[14,15]",none,0,5,diamond,4,FALSE,119,100,66,1,,35,Never,5,White,Woman
P0006,overworld,full,null,0,14,4178,[],diamond,4,10,diamond,4,TRUE,4,0,1,1,,19,Daily,4,Black or African American,Woman
P0006,overworld,partial,null,0,12,1363,[],coal,1,9,iron,3,FALSE,5,96,2,1,,19,Daily,4,Black or African American,Woman
P0006,cave,partial,null,8,13,24107,"[13,14,11,12,6,5,3,4]",diamond,4,5,diamond,4,FALSE,9,0,3,1,,19,Daily,4,Black or African American,Woman
P0006,cave,partial,null,0,15,4722,[],iron,3,8,diamond,4,FALSE,12,49,4,1,,19,Daily,4,Black or African American,Woman
P0006,deep,partial,null,8,11,13473,"[13,10,7,4,16,11,6,1]",none,0,5,diamond,4,FALSE,12,100,5,1,,19,Daily,4,Black or African American,Woman
P0006,overworld,full,good_to_bad,8,13,11915,"[13,14,15,16,10,6,7,11]",diamond,4,12,diamond,4,FALSE,16,0,6,1,,19,Daily,4,Black or African American,Woman
P0006,overworld,full,bad_to_good,2,14,10630,"[14,13]",none,0,1,copper,2,FALSE,16,92,7,1,,19,Daily,4,Black or African American,Woman
P0006,overworld,partial,null,8,15,14846,"[13,14,15,16,11,6,7,10]",copper,2,14,diamond,4,TRUE,18,34,8,1,,19,Daily,4,Black or African American,Woman
P0006,overworld,full,null,0,16,2100,[],diamond,4,6,iron,3,FALSE,22,0,9,1,,19,Daily,4,Black or African American,Woman
P0006,deep,full,good_to_bad,2,10,11480,"[10,15]",diamond,4,4,diamond,4,FALSE,26,0,10,1,,19,Daily,4,Black or African American,Woman
P0006,overworld,partial,null,2,9,7935,"[9,13]",coal,1,7,diamond,4,FALSE,27,63,11,1,,19,Daily,4,Black or African American,Woman
P0006,overworld,partial,null,8,13,8983,"[13,14,15,16,11,6,8,10]",diamond,4,5,iron,3,FALSE,31,0,12,1,,19,Daily,4,Black or African American,Woman
P0006,deep,partial,null,8,11,13449,"[12,15,14,13,16,6,11,1]",iron,3,5,diamond,4,FALSE,34,12,13,1,,19,Daily,4,Black or African American,Woman
P0006,overworld,partial,null,8,14,6946,"[13,14,15,16,10,5,11,7]",copper,2,5,iron,3,FALSE,36,15,14,1,,19,Daily,4,Black or African American,Woman
P0006,overworld,full,bad_to_good,8,15,7385,"[15,13,14,16,11,5,12,8]",none,0,8,diamond,4,FALSE,36,100,15,1,,19,Daily,4,Black or African American,Woman
P0006,cave,full,good_to_bad,2,9,19208,"[9,7]",diamond,4,13,diamond,4,TRUE,40,0,16,1,,19,Daily,4,Black or African American,Woman
P0006,deep,partial,null,2,12,7473,"[9,12]",iron,3,6,diamond,4,FALSE,43,6,17,1,,19,Daily,4,Black or African American,Woman
P0006,cave,full,bad_to_good,2,9,7492,"[9,15]",none,0,8,diamond,4,FALSE,43,100,18,1,,19,Daily,4,Black or African American,Woman
P0006,cave,partial,null,0,11,2292,[],iron,3,12,diamond,4,TRUE,46,3,19,1,,19,Daily,4,Black or African American,Woman
P0006,deep,full,null,0,7,3575,[],none,0,11,diamond,4,TRUE,46,100,20,1,,19,Daily,4,Black or African American,Woman
P0006,overworld,partial,null,2,16,12267,"[16,14]",diamond,4,2,iron,3,FALSE,50,0,21,1,,19,Daily,4,Black or African American,Woman
P0006,cave,partial,null,2,10,6118,"[10,7]",none,0,12,iron,3,FALSE,50,100,22,1,,19,Daily,4,Black or African American,Woman
P0006,cave,full,bad_to_good,2,11,15566,"[14,11]",none,0,13,diamond,4,FALSE,50,100,23,1,,19,Daily,4,Black or African American,Woman
P0006,cave,full,null,0,2,2744,[],diamond,4,13,diamond,4,FALSE,54,0,24,1,,19,Daily,4,Black or African American,Woman
P0006,overworld,partial,null,0,13,1937,[],copper,2,9,iron,3,TRUE,56,8,25,1,,19,Daily,4,Black or African American,Woman
P0006,deep,partial,null,8,1,88799,"[1,2,8,7,10,9,15,16]",none,0,2,diamond,4,TRUE,56,100,26,1,,19,Daily,4,Black or African American,Woman
P0006,overworld,partial,null,2,13,6411,"[13,11]",copper,2,5,diamond,4,FALSE,58,5,27,1,,19,Daily,4,Black or African American,Woman
P0006,deep,partial,null,0,6,3447,[],coal,1,2,diamond,4,TRUE,59,31,28,1,,19,Daily,4,Black or African American,Woman
P0006,cave,partial,null,0,2,6137,[],none,0,7,iron,3,FALSE,59,100,29,1,,19,Daily,4,Black or African American,Woman
P0006,deep,full,good_to_bad,8,7,7037,"[8,1,2,7,10,9,15,16]",diamond,4,6,diamond,4,TRUE,63,0,30,1,,19,Daily,4,Black or African American,Woman
P0006,deep,full,bad_to_good,8,11,14216,"[1,2,6,5,11,12,16,15]",none,0,2,diamond,4,FALSE,63,100,31,1,,19,Daily,4,Black or African American,Woman
P0006,deep,full,good_to_bad,2,14,7532,"[14,15]",diamond,4,1,diamond,4,FALSE,67,0,32,1,,19,Daily,4,Black or African American,Woman
P0006,deep,partial,null,0,13,4729,[],copper,2,10,diamond,4,FALSE,69,5,33,1,,19,Daily,4,Black or African American,Woman
P0006,deep,full,bad_to_good,2,16,5769,"[16,15]",none,0,1,diamond,4,FALSE,69,90,34,1,,19,Daily,4,Black or African American,Woman
P0006,deep,full,bad_to_good,2,14,4716,"[11,14]",iron,3,1,diamond,4,FALSE,72,18,35,1,,19,Daily,4,Black or African American,Woman
P0006,overworld,full,null,0,15,1855,[],iron,3,16,diamond,4,TRUE,75,0,36,1,,19,Daily,4,Black or African American,Woman
P0006,cave,full,good_to_bad,8,6,9008,"[6,3,11,16,12,7,2,13]",diamond,4,14,diamond,4,FALSE,79,0,37,1,,19,Daily,4,Black or African American,Woman
P0006,overworld,partial,null,0,14,2529,[],none,0,11,iron,3,FALSE,79,0,38,1,,19,Daily,4,Black or African American,Woman
P0006,cave,full,null,0,7,1202,[],iron,3,9,diamond,4,FALSE,82,0,39,1,,19,Daily,4,Black or African American,Woman
P0006,overworld,full,bad_to_good,2,15,4069,"[15,16]",none,0,10,diamond,4,FALSE,82,100,40,1,,19,Daily,4,Black or African American,Woman
P0006,deep,partial,null,8,10,11048,"[1,2,7,8,10,9,15,16]",none,0,1,diamond,4,FALSE,82,100,41,1,,19,Daily,4,Black or African American,Woman
P0006,deep,partial,null,0,15,2377,[],diamond,4,1,diamond,4,FALSE,86,0,42,1,,19,Daily,4,Black or African American,Woman
P0006,cave,full,null,0,2,738,[],none,0,6,diamond,4,TRUE,86,0,43,1,,19,Daily,4,Black or African American,Woman
P0006,deep,full,null,0,14,3299,[],iron,3,3,diamond,4,FALSE,89,0,44,1,,19,Daily,4,Black or African American,Woman
P0006,overworld,partial,null,2,13,4783,"[13,16]",coal,1,8,diamond,4,FALSE,90,34,45,1,,19,Daily,4,Black or African American,Woman
P0006,cave,full,good_to_bad,8,6,6676,"[3,4,5,11,12,14,13,6]",iron,3,10,diamond,4,TRUE,93,0,46,1,,19,Daily,4,Black or African American,Woman
P0006,overworld,full,good_to_bad,2,16,5950,"[13,16]",copper,2,9,diamond,4,FALSE,95,0,47,1,,19,Daily,4,Black or African American,Woman
P0006,cave,partial,null,8,1,9125,"[1,2,7,8,10,9,15,16]",none,0,4,diamond,4,FALSE,95,100,48,1,,19,Daily,4,Black or African American,Woman
P0006,deep,full,null,0,15,7898,[],diamond,4,6,diamond,4,FALSE,99,0,49,1,,19,Daily,4,Black or African American,Woman
P0006,cave,partial,null,0,7,3965,[],coal,1,14,diamond,4,FALSE,100,12,50,1,,19,Daily,4,Black or African American,Woman
P0006,deep,full,null,0,16,2170,[],copper,2,3,diamond,4,FALSE,102,5,51,1,,19,Daily,4,Black or African American,Woman
P0006,cave,full,bad_to_good,2,7,3348,"[7,4]",none,0,5,diamond,4,FALSE,102,100,52,1,,19,Daily,4,Black or African American,Woman
P0006,cave,partial,null,2,4,4945,"[4,14]",none,0,2,diamond,4,FALSE,102,100,53,1,,19,Daily,4,Black or African American,Woman
P0006,overworld,full,good_to_bad,8,13,10851,"[16,11,6,1,4,7,10,13]",copper,2,9,diamond,4,TRUE,104,0,54,1,,19,Daily,4,Black or African American,Woman
P0006,cave,full,good_to_bad,8,7,7876,"[16,1,2,15,7,13,10,9]",iron,3,4,iron,3,FALSE,107,0,55,1,,19,Daily,4,Black or African American,Woman
P0006,deep,partial,null,2,13,3334,"[13,3]",none,0,1,diamond,4,FALSE,107,100,56,1,,19,Daily,4,Black or African American,Woman
P0006,overworld,full,bad_to_good,2,13,5045,"[13,15]",none,0,2,diamond,4,FALSE,107,100,57,1,,19,Daily,4,Black or African American,Woman
P0006,cave,full,good_to_bad,8,6,10960,"[3,1,8,9,11,15,13,6]",diamond,4,14,diamond,4,FALSE,111,0,58,1,,19,Daily,4,Black or African American,Woman
P0006,overworld,full,bad_to_good,8,14,8732,"[13,15,16,11,10,14,9,12]",none,0,16,diamond,4,FALSE,111,100,59,1,,19,Daily,4,Black or African American,Woman
P0006,deep,full,good_to_bad,8,15,5983,"[13,14,15,16,2,3,4,1]",diamond,4,10,diamond,4,FALSE,115,0,60,1,,19,Daily,4,Black or African American,Woman
P0006,cave,partial,null,2,13,14446,"[13,10]",diamond,4,10,diamond,4,FALSE,119,0,61,1,,19,Daily,4,Black or African American,Woman
P0006,deep,partial,null,0,13,6240,[],diamond,4,4,diamond,4,FALSE,123,0,62,1,,19,Daily,4,Black or African American,Woman
P0006,cave,partial,null,2,6,3408,"[3,6]",coal,1,3,diamond,4,FALSE,124,39,63,1,,19,Daily,4,Black or African American,Woman
P0006,deep,partial,null,2,14,6335,"[14,11]",diamond,4,2,diamond,4,FALSE,128,0,64,1,,19,Daily,4,Black or African American,Woman
P0006,cave,partial,null,8,8,10932,"[2,1,7,8,10,9,15,16]",none,0,1,diamond,4,FALSE,128,100,65,1,,19,Daily,4,Black or African American,Woman
P0006,overworld,partial,null,0,14,1348,[],iron,3,13,iron,3,TRUE,131,0,66,1,,19,Daily,4,Black or African American,Woman
P0007,deep,full,good_to_bad,8,6,23790,"[1,2,6,7,11,16,10,13]",diamond,4,8,diamond,4,FALSE,4,0,1,2,I felt like the area I chose the most was overall the safer option to choose row 2 column 2. Was happy to be above 100 xp at the end.,37,Never,6,White,Man
P0007,overworld,partial,null,2,6,10202,"[1,6]",coal,1,12,diamond,4,FALSE,5,60,2,2,I felt like the area I chose the most was overall the safer option to choose row 2 column 2. Was happy to be above 100 xp at the end.,37,Never,6,White,Man
P0007,overworld,partial,null,0,11,7734,[],coal,1,8,iron,3,FALSE,6,55,3,2,I felt like the area I chose the most was overall the safer option to choose row 2 column 2. Was happy to be above 100 xp at the end.,37,Never,6,White,Man
P0007,cave,full,bad_to_good,2,10,7398,"[6,10]",none,0,16,diamond,4,FALSE,6,80,4,2,I felt like the area I chose the most was overall the safer option to choose row 2 column 2. Was happy to be above 100 xp at the end.,37,Never,6,White,Man
P0007,cave,partial,null,8,6,11717,"[1,6,11,16,10,14,7,4]",coal,1,7,diamond,4,TRUE,7,51,5,2,I felt like the area I chose the most was overall the safer option to choose row 2 column 2. Was happy to be above 100 xp at the end.,37,Never,6,White,Man
P0007,overworld,partial,null,8,10,6179,"[1,6,11,10,14,15,5,9]",copper,2,8,iron,3,FALSE,9,23,6,2,I felt like the area I chose the most was overall the safer option to choose row 2 column 2. Was happy to be above 100 xp at the end.,37,Never,6,White,Man
P0007,deep,partial,null,2,6,8503,"[6,1]",diamond,4,11,diamond,4,FALSE,13,0,7,2,I felt like the area I chose the most was overall the safer option to choose row 2 column 2. Was happy to be above 100 xp at the end.,37,Never,6,White,Man
P0007,cave,full,null,0,6,2334,[],diamond,4,1,diamond,4,FALSE,17,0,8,2,I felt like the area I chose the most was overall the safer option to choose row 2 column 2. Was happy to be above 100 xp at the end.,37,Never,6,White,Man
P0007,cave,partial,null,8,6,7395,"[1,5,6,2,16,15,11,12]",diamond,4,9,diamond,4,FALSE,21,0,9,2,I felt like the area I chose the most was overall the safer option to choose row 2 column 2. Was happy to be above 100 xp at the end.,37,Never,6,White,Man
P0007,cave,full,null,0,6,1627,[],diamond,4,2,diamond,4,TRUE,25,0,10,2,I felt like the area I chose the most was overall the safer option to choose row 2 column 2. Was happy to be above 100 xp at the end.,37,Never,6,White,Man
P0007,overworld,partial,null,2,6,3731,"[6,1]",none,0,1,diamond,4,FALSE,25,61,11,2,I felt like the area I chose the most was overall the safer option to choose row 2 column 2. Was happy to be above 100 xp at the end.,37,Never,6,White,Man
P0007,overworld,full,null,0,1,1956,[],coal,1,11,diamond,4,FALSE,26,10,12,2,I felt like the area I chose the most was overall the safer option to choose row 2 column 2. Was happy to be above 100 xp at the end.,37,Never,6,White,Man
P0007,deep,full,bad_to_good,2,6,5778,"[6,11]",iron,3,7,diamond,4,TRUE,29,52,13,2,I felt like the area I chose the most was overall the safer option to choose row 2 column 2. Was happy to be above 100 xp at the end.,37,Never,6,White,Man
P0007,cave,partial,null,0,6,1285,[],copper,2,9,diamond,4,FALSE,31,1,14,2,I felt like the area I chose the most was overall the safer option to choose row 2 column 2. Was happy to be above 100 xp at the end.,37,Never,6,White,Man
P0007,overworld,full,bad_to_good,2,11,3942,"[11,6]",coal,1,15,iron,3,TRUE,32,54,15,2,I felt like the area I chose the most was overall the safer option to choose row 2 column 2. Was happy to be above 100 xp at the end.,37,Never,6,White,Man
P0007,deep,partial,null,0,6,1585,[],none,0,14,diamond,4,FALSE,32,64,16,2,I felt like the area I chose the most was overall the safer option to choose row 2 column 2. Was happy to be above 100 xp at the end.,37,Never,6,White,Man
P0007,deep,partial,null,2,6,6472,"[6,11]",diamond,4,9,diamond,4,FALSE,36,0,17,2,I felt like the area I chose the most was overall the safer option to choose row 2 column 2. Was happy to be above 100 xp at the end.,37,Never,6,White,Man
P0007,overworld,full,bad_to_good,8,6,10943,"[1,5,6,10,11,15,4,16]",none,0,5,iron,3,TRUE,36,89,18,2,I felt like the area I chose the most was overall the safer option to choose row 2 column 2. Was happy to be above 100 xp at the end.,37,Never,6,White,Man
P0007,cave,full,good_to_bad,8,6,6523,"[1,6,11,16,4,7,10,13]",iron,3,5,diamond,4,TRUE,39,0,19,2,I felt like the area I chose the most was overall the safer option to choose row 2 column 2. Was happy to be above 100 xp at the end.,37,Never,6,White,Man
P0007,deep,full,bad_to_good,2,6,5048,"[2,6]",copper,2,2,diamond,4,TRUE,41,58,20,2,I felt like the area I chose the most was overall the safer option to choose row 2 column 2. Was happy to be above 100 xp at the end.,37,Never,6,White,Man
P0007,overworld,full,null,0,11,3398,[],none,0,13,diamond,4,FALSE,41,80,21,2,I felt like the area I chose the most was overall the safer option to choose row 2 column 2. Was happy to be above 100 xp at the end.,37,Never,6,White,Man
P0007,deep,partial,null,0,6,1493,[],iron,3,1,diamond,4,FALSE,44,17,22,2,I felt like the area I chose the most was overall the safer option to choose row 2 column 2. Was happy to be above 100 xp at the end.,37,Never,6,White,Man
P0007,cave,partial,null,0,6,1351,[],none,0,12,diamond,4,FALSE,44,78,23,2,I felt like the area I chose the most was overall the safer option to choose row 2 column 2. Was happy to be above 100 xp at the end.,37,Never,6,White,Man
P0007,cave,full,null,0,10,2065,[],iron,3,15,diamond,4,FALSE,47,0,24,2,I felt like the area I chose the most was overall the safer option to choose row 2 column 2. Was happy to be above 100 xp at the end.,37,Never,6,White,Man
P0007,overworld,full,bad_to_good,8,11,8220,"[1,5,9,10,11,7,4,16]",none,0,13,diamond,4,FALSE,47,94,25,2,I felt like the area I chose the most was overall the safer option to choose row 2 column 2. Was happy to be above 100 xp at the end.,37,Never,6,White,Man
P0007,deep,partial,null,8,16,11913,"[1,2,8,7,9,10,16,15]",diamond,4,1,diamond,4,FALSE,51,0,26,2,I felt like the area I chose the most was overall the safer option to choose row 2 column 2. Was happy to be above 100 xp at the end.,37,Never,6,White,Man
P0007,deep,full,null,0,16,3193,[],none,0,5,diamond,4,FALSE,51,92,27,2,I felt like the area I chose the most was overall the safer option to choose row 2 column 2. Was happy to be above 100 xp at the end.,37,Never,6,White,Man
P0007,cave,partial,null,2,6,4408,"[16,6]",iron,3,5,diamond,4,TRUE,54,1,28,2,I felt like the area I chose the most was overall the safer option to choose row 2 column 2. Was happy to be above 100 xp at the end.,37,Never,6,White,Man
P0007,deep,full,null,0,6,1561,[],iron,3,7,diamond,4,TRUE,57,1,29,2,I felt like the area I chose the most was overall the safer option to choose row 2 column 2. Was happy to be above 100 xp at the end.,37,Never,6,White,Man
P0007,deep,full,bad_to_good,8,6,6782,"[1,2,7,11,15,6,10,13]",none,0,3,diamond,4,FALSE,57,99,30,2,I felt like the area I chose the most was overall the safer option to choose row 2 column 2. Was happy to be above 100 xp at the end.,37,Never,6,White,Man
P0007,cave,partial,null,2,11,5013,"[16,11]",diamond,4,9,diamond,4,FALSE,61,0,31,2,I felt like the area I chose the most was overall the safer option to choose row 2 column 2. Was happy to be above 100 xp at the end.,37,Never,6,White,Man
P0007,cave,full,good_to_bad,2,10,7446,"[6,10]",iron,3,11,diamond,4,TRUE,64,0,32,2,I felt like the area I chose the most was overall the safer option to choose row 2 column 2. Was happy to be above 100 xp at the end.,37,Never,6,White,Man
P0007,deep,partial,null,2,10,5611,"[6,10]",none,0,7,diamond,4,FALSE,64,93,33,2,I felt like the area I chose the most was overall the safer option to choose row 2 column 2. Was happy to be above 100 xp at the end.,37,Never,6,White,Man
P0007,overworld,partial,null,0,4,1529,[],none,0,14,diamond,4,FALSE,64,100,34,2,I felt like the area I chose the most was overall the safer option to choose row 2 column 2. Was happy to be above 100 xp at the end.,37,Never,6,White,Man
P0007,deep,partial,null,8,6,11492,"[1,2,3,7,6,5,15,11]",diamond,4,5,diamond,4,TRUE,68,0,35,2,I felt like the area I chose the most was overall the safer option to choose row 2 column 2. Was happy to be above 100 xp at the end.,37,Never,6,White,Man
P0007,deep,full,good_to_bad,8,6,11710,"[1,5,6,9,10,8,12,15]",diamond,4,13,diamond,4,FALSE,72,0,36,2,I felt like the area I chose the most was overall the safer option to choose row 2 column 2. Was happy to be above 100 xp at the end.,37,Never,6,White,Man
P0007,overworld,full,good_to_bad,2,10,5645,"[3,10]",iron,3,12,iron,3,FALSE,75,0,37,2,I felt like the area I chose the most was overall the safer option to choose row 2 column 2. Was happy to be above 100 xp at the end.,37,Never,6,White,Man
P0007,overworld,full,good_to_bad,8,10,8008,"[1,2,3,4,8,10,14,15]",iron,3,12,iron,3,FALSE,78,0,38,2,I felt like the area I chose the most was overall the safer option to choose row 2 column 2. Was happy to be above 100 xp at the end.,37,Never,6,White,Man
P0007,overworld,partial,null,0,6,2042,[],none,0,14,iron,3,FALSE,78,82,39,2,I felt like the area I chose the most was overall the safer option to choose row 2 column 2. Was happy to be above 100 xp at the end.,37,Never,6,White,Man
P0007,cave,full,null,0,16,3422,[],iron,3,10,diamond,4,FALSE,81,0,40,2,I felt like the area I chose the most was overall the safer option to choose row 2 column 2. Was happy to be above 100 xp at the end.,37,Never,6,White,Man
P0007,overworld,partial,null,0,4,5952,[],none,0,14,diamond,4,FALSE,81,90,41,2,I felt like the area I chose the most was overall the safer option to choose row 2 column 2. Was happy to be above 100 xp at the end.,37,Never,6,White,Man
P0007,cave,partial,null,0,6,1841,[],iron,3,5,diamond,4,TRUE,84,0,42,2,I felt like the area I chose the most was overall the safer option to choose row 2 column 2. Was happy to be above 100 xp at the end.,37,Never,6,White,Man
P0007,deep,full,good_to_bad,2,6,10271,"[11,6]",diamond,4,5,diamond,4,TRUE,88,0,43,2,I felt like the area I chose the most was overall the safer option to choose row 2 column 2. Was happy to be above 100 xp at the end.,37,Never,6,White,Man
P0007,deep,full,null,0,6,3438,[],none,0,4,diamond,4,FALSE,88,2,44,2,I felt like the area I chose the most was overall the safer option to choose row 2 column 2. Was happy to be above 100 xp at the end.,37,Never,6,White,Man
P0007,overworld,full,good_to_bad,8,6,13520,"[1,6,11,16,15,7,3,13]",diamond,4,12,diamond,4,FALSE,92,0,45,2,I felt like the area I chose the most was overall the safer option to choose row 2 column 2. Was happy to be above 100 xp at the end.,37,Never,6,White,Man
P0007,cave,partial,null,8,6,7986,"[1,6,11,16,4,7,10,13]",none,0,7,diamond,4,TRUE,92,72,46,2,I felt like the area I chose the most was overall the safer option to choose row 2 column 2. Was happy to be above 100 xp at the end.,37,Never,6,White,Man
P0007,cave,full,good_to_bad,8,6,14008,"[1,10,15,11,7,3,4,6]",iron,3,5,diamond,4,TRUE,95,0,47,2,I felt like the area I chose the most was overall the safer option to choose row 2 column 2. Was happy to be above 100 xp at the end.,37,Never,6,White,Man
P0007,overworld,partial,null,2,11,4917,"[11,10]",coal,1,9,diamond,4,FALSE,96,43,48,2,I felt like the area I chose the most was overall the safer option to choose row 2 column 2. Was happy to be above 100 xp at the end.,37,Never,6,White,Man
P0007,cave,partial,null,0,11,4564,[],coal,1,5,diamond,4,FALSE,97,20,49,2,I felt like the area I chose the most was overall the safer option to choose row 2 column 2. Was happy to be above 100 xp at the end.,37,Never,6,White,Man
P0007,overworld,full,good_to_bad,2,10,3510,"[6,10]",diamond,4,2,iron,3,FALSE,101,0,50,2,I felt like the area I chose the most was overall the safer option to choose row 2 column 2. Was happy to be above 100 xp at the end.,37,Never,6,White,Man
P0007,deep,partial,null,8,6,7174,"[16,11,6,1,13,9,4,8]",diamond,4,3,diamond,4,FALSE,105,0,51,2,I felt like the area I chose the most was overall the safer option to choose row 2 column 2. Was happy to be above 100 xp at the end.,37,Never,6,White,Man
P0007,cave,partial,null,2,10,5424,"[6,10]",iron,3,12,diamond,4,FALSE,108,0,52,2,I felt like the area I chose the most was overall the safer option to choose row 2 column 2. Was happy to be above 100 xp at the end.,37,Never,6,White,Man
P0007,deep,partial,null,2,6,3920,"[6,10]",diamond,4,1,diamond,4,FALSE,112,0,53,2,I felt like the area I chose the most was overall the safer option to choose row 2 column 2. Was happy to be above 100 xp at the end.,37,Never,6,White,Man
P0007,overworld,partial,null,8,6,8323,"[1,5,9,13,14,6,11,4]",coal,1,15,diamond,4,FALSE,113,16,54,2,I felt like the area I chose the most was overall the safer option to choose row 2 column 2. Was happy to be above 100 xp at the end.,37,Never,6,White,Man
P0007,cave,partial,null,8,6,5418,"[2,6,10,14,15,11,7,3]",copper,2,4,diamond,4,FALSE,115,4,55,2,I felt like the area I chose the most was overall the safer option to choose row 2 column 2. Was happy to be above 100 xp at the end.,37,Never,6,White,Man
P0007,deep,full,good_to_bad,2,6,4723,"[1,6]",iron,3,5,diamond,4,TRUE,118,0,56,2,I felt like the area I chose the most was overall the safer option to choose row 2 column 2. Was happy to be above 100 xp at the end.,37,Never,6,White,Man
P0007,overworld,full,bad_to_good,2,11,5219,"[11,7]",none,0,9,diamond,4,FALSE,118,61,57,2,I felt like the area I chose the most was overall the safer option to choose row 2 column 2. Was happy to be above 100 xp at the end.,37,Never,6,White,Man
P0007,cave,full,good_to_bad,8,6,6809,"[1,2,3,4,8,7,6,5]",diamond,4,9,diamond,4,FALSE,122,0,58,2,I felt like the area I chose the most was overall the safer option to choose row 2 column 2. Was happy to be above 100 xp at the end.,37,Never,6,White,Man
P0007,deep,partial,null,0,6,4968,[],none,0,13,diamond,4,FALSE,122,77,59,2,I felt like the area I chose the most was overall the safer option to choose row 2 column 2. Was happy to be above 100 xp at the end.,37,Never,6,White,Man
P0007,overworld,partial,null,8,9,8339,"[11,10,6,7,1,9,8,16]",coal,1,10,diamond,4,TRUE,123,25,60,2,I felt like the area I chose the most was overall the safer option to choose row 2 column 2. Was happy to be above 100 xp at the end.,37,Never,6,White,Man
P0007,deep,partial,null,0,6,1585,[],iron,3,7,diamond,4,TRUE,126,0,61,2,I felt like the area I chose the most was overall the safer option to choose row 2 column 2. Was happy to be above 100 xp at the end.,37,Never,6,White,Man
P0007,overworld,partial,null,2,6,3661,"[2,6]",none,0,3,diamond,4,FALSE,126,85,62,2,I felt like the area I chose the most was overall the safer option to choose row 2 column 2. Was happy to be above 100 xp at the end.,37,Never,6,White,Man
P0007,deep,full,null,0,6,3155,[],diamond,4,8,diamond,4,FALSE,130,0,63,2,I felt like the area I chose the most was overall the safer option to choose row 2 column 2. Was happy to be above 100 xp at the end.,37,Never,6,White,Man
P0007,cave,full,bad_to_good,8,11,9306,"[7,3,11,2,6,10,9,8]",diamond,4,13,diamond,4,FALSE,134,0,64,2,I felt like the area I chose the most was overall the safer option to choose row 2 column 2. Was happy to be above 100 xp at the end.,37,Never,6,White,Man
P0007,overworld,full,null,0,3,3399,[],none,0,14,iron,3,FALSE,134,83,65,2,I felt like the area I chose the most was overall the safer option to choose row 2 column 2. Was happy to be above 100 xp at the end.,37,Never,6,White,Man
P0007,cave,full,bad_to_good,2,6,6894,"[2,6]",none,0,7,diamond,4,TRUE,134,68,66,2,I felt like the area I chose the most was overall the safer option to choose row 2 column 2. Was happy to be above 100 xp at the end.,37,Never,6,White,Man
P0008,overworld,partial,null,2,7,9243,"[10,7]",coal,1,11,diamond,4,TRUE,1,60,1,1,,28,Once or twice,5,White,Woman
P0008,deep,full,bad_to_good,2,10,7566,"[13,10]",none,0,6,diamond,4,TRUE,1,100,2,1,,28,Once or twice,5,White,Woman
P0008,cave,full,good_to_bad,2,13,5551,"[13,15]",diamond,4,12,diamond,4,FALSE,5,0,3,1,,28,Once or twice,5,White,Woman
P0008,cave,full,null,0,7,1559,[],none,0,3,diamond,4,TRUE,5,100,4,1,,28,Once or twice,5,White,Woman
P0008,overworld,full,good_to_bad,2,13,4917,"[13,14]",copper,2,1,diamond,4,FALSE,7,19,5,1,,28,Once or twice,5,White,Woman
P0008,overworld,partial,null,0,13,2103,[],none,0,11,copper,2,FALSE,7,73,6,1,,28,Once or twice,5,White,Woman
P0008,deep,full,good_to_bad,8,6,13992,"[6,12,13,10,3,5,11,14]",diamond,4,8,diamond,4,FALSE,11,0,7,1,,28,Once or twice,5,White,Woman
P0008,cave,partial,null,0,6,4986,[],none,0,8,iron,3,FALSE,11,100,8,1,,28,Once or twice,5,White,Woman
P0008,cave,partial,null,0,6,1623,[],none,0,13,diamond,4,FALSE,11,100,9,1,,28,Once or twice,5,White,Woman
P0008,cave,full,null,0,8,1714,[],coal,1,10,diamond,4,FALSE,12,54,10,1,,28,Once or twice,5,White,Woman
P0008,overworld,partial,null,8,7,10204,"[6,12,8,2,13,10,15,7]",coal,1,6,iron,3,TRUE,13,54,11,1,,28,Once or twice,5,White,Woman
P0008,overworld,partial,null,0,6,2744,[],none,0,10,diamond,4,TRUE,13,100,12,1,,28,Once or twice,5,White,Woman
P0008,deep,partial,null,8,11,19267,"[11,14,2,8,5,13,7,9]",none,0,8,diamond,4,FALSE,13,100,13,1,,28,Once or twice,5,White,Woman
P0008,cave,partial,null,8,2,9679,"[5,12,13,10,9,14,6,2]",iron,3,12,diamond,4,FALSE,16,30,14,1,,28,Once or twice,5,White,Woman
P0008,overworld,partial,null,8,6,7277,"[2,10,9,6,14,16,7,11]",copper,2,9,iron,3,FALSE,18,37,15,1,,28,Once or twice,5,White,Woman
P0008,overworld,full,good_to_bad,8,4,10484,"[2,11,7,9,14,5,1,4]",iron,3,12,iron,3,FALSE,21,31,16,1,,28,Once or twice,5,White,Woman
P0008,overworld,full,null,0,4,2212,[],none,0,16,diamond,4,FALSE,21,100,17,1,,28,Once or twice,5,White,Woman
P0008,deep,partial,null,2,10,5518,"[5,10]",none,0,1,diamond,4,FALSE,21,100,18,1,,28,Once or twice,5,White,Woman
P0008,deep,partial,null,8,13,11183,"[2,5,9,14,13,6,10,1]",none,0,5,diamond,4,FALSE,21,100,19,1,,28,Once or twice,5,White,Woman
P0008,cave,full,good_to_bad,8,7,7597,"[11,16,7,6,10,14,3,2]",diamond,4,13,diamond,4,FALSE,25,0,20,1,,28,Once or twice,5,White,Woman
P0008,overworld,full,bad_to_good,2,4,5170,"[4,13]",none,0,14,diamond,4,FALSE,25,92,21,1,,28,Once or twice,5,White,Woman
P0008,overworld,full,good_to_bad,2,13,3298,"[13,9]",iron,3,16,diamond,4,FALSE,28,20,22,1,,28,Once or twice,5,White,Woman
P0008,deep,full,bad_to_good,2,2,3442,"[2,5]",none,0,5,diamond,4,FALSE,28,100,23,1,,28,Once or twice,5,White,Woman
P0008,deep,full,null,0,5,1030,[],none,0,8,diamond,4,FALSE,28,100,24,1,,28,Once or twice,5,White,Woman
P0008,cave,full,bad_to_good,8,13,7767,"[13,14,15,2,7,10,4,6]",none,0,2,diamond,4,FALSE,28,100,25,1,,28,Once or twice,5,White,Woman
P0008,overworld,partial,null,0,10,2787,[],none,0,15,copper,2,FALSE,28,100,26,1,,28,Once or twice,5,White,Woman
P0008,deep,full,null,0,6,3065,[],diamond,4,1,diamond,4,FALSE,32,0,27,1,,28,Once or twice,5,White,Woman
P0008,cave,partial,null,2,2,4283,"[9,2]",diamond,4,9,diamond,4,FALSE,36,0,28,1,,28,Once or twice,5,White,Woman
P0008,overworld,full,null,0,13,2146,[],diamond,4,3,diamond,4,FALSE,40,0,29,1,,28,Once or twice,5,White,Woman
P0008,deep,partial,null,2,5,3402,"[5,6]",copper,2,13,diamond,4,FALSE,42,31,30,1,,28,Once or twice,5,White,Woman
P0008,overworld,partial,null,2,13,3469,"[13,9]",coal,1,4,diamond,4,FALSE,43,59,31,1,,28,Once or twice,5,White,Woman
P0008,overworld,full,good_to_bad,8,9,8424,"[13,9,14,10,11,15,7,8]",diamond,4,12,diamond,4,FALSE,47,0,32,1,,28,Once or twice,5,White,Woman
P0008,overworld,partial,null,2,9,3750,"[9,10]",none,0,11,diamond,4,FALSE,47,100,33,1,,28,Once or twice,5,White,Woman
P0008,cave,full,null,0,2,918,[],none,0,8,diamond,4,FALSE,47,100,34,1,,28,Once or twice,5,White,Woman
P0008,deep,full,good_to_bad,2,5,4633,"[5,6]",copper,2,10,diamond,4,FALSE,49,38,35,1,,28,Once or twice,5,White,Woman
P0008,overworld,full,null,0,13,615,[],diamond,4,5,diamond,4,FALSE,53,0,36,1,,28,Once or twice,5,White,Woman
P0008,overworld,full,bad_to_good,8,9,6308,"[13,9,10,6,2,11,14,15]",none,0,14,iron,3,FALSE,53,100,37,1,,28,Once or twice,5,White,Woman
P0008,deep,full,null,0,2,1007,[],none,0,6,diamond,4,TRUE,53,100,38,1,,28,Once or twice,5,White,Woman
P0008,cave,partial,null,2,11,5357,"[11,7]",none,0,2,diamond,4,FALSE,53,100,39,1,,28,Once or twice,5,White,Woman
P0008,cave,full,bad_to_good,2,10,2521,"[6,10]",coal,1,5,diamond,4,FALSE,54,68,40,1,,28,Once or twice,5,White,Woman
P0008,overworld,full,null,0,9,1431,[],coal,1,16,diamond,4,FALSE,55,55,41,1,,28,Once or twice,5,White,Woman
P0008,cave,partial,null,8,11,6689,"[10,14,15,11,6,7,8,12]",none,0,9,diamond,4,FALSE,55,100,42,1,,28,Once or twice,5,White,Woman
P0008,cave,partial,null,8,6,7431,"[6,10,11,14,2,7,5,13]",none,0,8,diamond,4,FALSE,55,100,43,1,,28,Once or twice,5,White,Woman
P0008,overworld,partial,null,0,11,8513,[],iron,3,13,diamond,4,FALSE,58,16,44,1,,28,Once or twice,5,White,Woman
P0008,deep,full,good_to_bad,8,5,5934,"[5,6,7,8,12,11,10,9]",iron,3,2,diamond,4,FALSE,61,0,45,1,,28,Once or twice,5,White,Woman
P0008,cave,full,null,0,13,2529,[],iron,3,3,diamond,4,FALSE,64,26,46,1,,28,Once or twice,5,White,Woman
P0008,deep,full,bad_to_good,8,6,5831,"[6,7,5,2,3,10,11,9]",coal,1,1,diamond,4,FALSE,65,78,47,1,,28,Once or twice,5,White,Woman
P0008,cave,full,bad_to_good,2,10,4610,"[14,10]",coal,1,12,iron,3,FALSE,66,73,48,1,,28,Once or twice,5,White,Woman
P0008,deep,full,bad_to_good,8,10,7733,"[13,14,10,9,7,6,5,1]",none,0,1,diamond,4,FALSE,66,100,49,1,,28,Once or twice,5,White,Woman
P0008,deep,partial,null,0,13,736,[],none,0,2,diamond,4,FALSE,66,100,50,1,,28,Once or twice,5,White,Woman
P0008,cave,partial,null,8,13,5920,"[1,13,9,2,6,5,7,11]",iron,3,7,iron,3,FALSE,69,22,51,1,,28,Once or twice,5,White,Woman
P0008,overworld,partial,null,2,13,3764,"[13,9]",iron,3,14,diamond,4,TRUE,72,18,52,1,,28,Once or twice,5,White,Woman
P0008,deep,partial,null,2,13,3619,"[13,14]",iron,3,7,diamond,4,FALSE,75,13,53,1,,28,Once or twice,5,White,Woman
P0008,cave,partial,null,2,1,5417,"[1,13]",none,0,10,diamond,4,FALSE,75,100,54,1,,28,Once or twice,5,White,Woman
P0008,overworld,partial,null,8,9,7913,"[9,13,2,1,5,8,11,10]",none,0,7,iron,3,FALSE,75,100,55,1,,28,Once or twice,5,White,Woman
P0008,cave,full,good_to_bad,2,13,3928,"[13,9]",iron,3,5,diamond,4,FALSE,78,6,56,1,,28,Once or twice,5,White,Woman
P0008,deep,partial,null,2,1,2649,"[1,2]",none,0,6,diamond,4,FALSE,78,100,57,1,,28,Once or twice,5,White,Woman
P0008,cave,partial,null,0,13,2155,[],none,0,6,diamond,4,FALSE,78,100,58,1,,28,Once or twice,5,White,Woman
P0008,overworld,full,good_to_bad,8,13,6312,"[9,13,14,10,5,3,7,8]",copper,2,15,diamond,4,FALSE,80,14,59,1,,28,Once or twice,5,White,Woman
P0008,deep,partial,null,8,6,7071,"[9,13,1,6,2,7,10,5]",none,0,7,diamond,4,TRUE,80,100,60,1,,28,Once or twice,5,White,Woman
P0008,deep,partial,null,8,5,6553,"[1,10,9,5,11,15,14,13]",coal,1,10,diamond,4,FALSE,81,38,61,1,,28,Once or twice,5,White,Woman
P0008,deep,partial,null,0,13,2087,[],iron,3,6,diamond,4,FALSE,84,24,62,1,,28,Once or twice,5,White,Woman
P0008,deep,partial,null,0,9,1162,[],none,0,10,diamond,4,TRUE,84,100,63,1,,28,Once or twice,5,White,Woman
P0008,cave,full,good_to_bad,8,14,5528,"[14,15,16,12,11,10,6,7]",diamond,4,13,diamond,4,TRUE,88,0,64,1,,28,Once or twice,5,White,Woman
P0008,deep,full,null,0,13,1389,[],iron,3,1,diamond,4,FALSE,91,4,65,1,,28,Once or twice,5,White,Woman
P0008,cave,partial,null,2,13,3578,"[13,14]",diamond,4,6,diamond,4,FALSE,95,0,66,1,,28,Once or twice,5,White,Woman
P0009,deep,partial,null,2,7,10393,"[4,7]",iron,3,5,diamond,4,FALSE,3,21,1,3,,37,Weekly,7,White,Woman
P0009,cave,full,bad_to_good,8,2,19745,"[3,2,6,10,15,11,7,4]",none,0,6,iron,3,TRUE,3,19,2,3,,37,Weekly,7,White,Woman
P0009,deep,full,good_to_bad,2,6,2768,"[3,6]",diamond,4,4,diamond,4,FALSE,7,4,3,3,,37,Weekly,7,White,Woman
P0009,cave,full,bad_to_good,2,8,3215,"[7,8]",none,0,4,diamond,4,TRUE,7,31,4,3,,37,Weekly,7,White,Woman
P0009,overworld,partial,null,0,11,1670,[],none,0,14,diamond,4,FALSE,7,19,5,3,,37,Weekly,7,White,Woman
P0009,overworld,partial,null,8,2,6839,"[5,7,8,6,2,3,4,1]",coal,1,5,iron,3,FALSE,8,17,6,3,,37,Weekly,7,White,Woman
P0009,deep,partial,null,0,12,940,[],copper,2,6,diamond,4,FALSE,10,36,7,3,,37,Weekly,7,White,Woman
P0009,cave,partial,null,2,11,3779,"[11,10]",coal,1,7,diamond,4,TRUE,11,42,8,3,,37,Weekly,7,White,Woman
P0009,overworld,partial,null,2,11,2588,"[7,11]",none,0,13,diamond,4,FALSE,11,20,9,3,,37,Weekly,7,White,Woman
P0009,cave,partial,null,8,8,5099,"[11,10,6,7,8,4,3,2]",copper,2,13,diamond,4,FALSE,13,18,10,3,,37,Weekly,7,White,Woman
P0009,overworld,partial,null,0,15,2054,[],copper,2,9,copper,2,FALSE,15,24,11,3,,37,Weekly,7,White,Woman
P0009,overworld,full,null,0,6,1304,[],none,0,8,diamond,4,FALSE,15,23,12,3,,37,Weekly,7,White,Woman
P0009,cave,partial,null,0,15,737,[],diamond,4,12,diamond,4,FALSE,19,0,13,3,,37,Weekly,7,White,Woman
P0009,overworld,full,good_to_bad,8,7,4801,"[11,15,10,6,7,3,2,1]",iron,3,12,diamond,4,FALSE,22,44,14,3,,37,Weekly,7,White,Woman
P0009,overworld,partial,null,8,12,4238,"[11,10,7,2,3,4,8,12]",coal,1,11,diamond,4,TRUE,23,37,15,3,,37,Weekly,7,White,Woman
P0009,cave,partial,null,2,6,4145,"[11,6]",diamond,4,15,diamond,4,FALSE,27,14,16,3,,37,Weekly,7,White,Woman
P0009,cave,partial,null,8,4,3519,"[3,6,9,14,15,12,8,4]",none,0,9,diamond,4,FALSE,27,15,17,3,,37,Weekly,7,White,Woman
P0009,deep,partial,null,8,7,3521,"[3,10,14,11,12,4,8,7]",none,0,4,diamond,4,FALSE,27,37,18,3,,37,Weekly,7,White,Woman
P0009,deep,full,null,0,10,595,[],diamond,4,2,diamond,4,FALSE,31,0,19,3,,37,Weekly,7,White,Woman
P0009,deep,full,null,0,8,1905,[],none,0,5,diamond,4,FALSE,31,16,20,3,,37,Weekly,7,White,Woman
P0009,deep,full,bad_to_good,8,7,8613,"[7,4,12,5,2,3,1,13]",none,0,4,diamond,4,FALSE,31,19,21,3,,37,Weekly,7,White,Woman
P0009,deep,partial,null,2,11,6161,"[11,10]",diamond,4,3,diamond,4,FALSE,35,0,22,3,,37,Weekly,7,White,Woman
P0009,cave,full,null,0,7,650,[],none,0,13,diamond,4,FALSE,35,21,23,3,,37,Weekly,7,White,Woman
P0009,overworld,partial,null,0,11,1343,[],copper,2,9,iron,3,FALSE,37,33,24,3,,37,Weekly,7,White,Woman
P0009,deep,full,null,0,11,1106,[],diamond,4,13,diamond,4,FALSE,41,0,25,3,,37,Weekly,7,White,Woman
P0009,deep,full,good_to_bad,2,8,2612,"[8,11]",iron,3,2,diamond,4,FALSE,44,18,26,3,,37,Weekly,7,White,Woman
P0009,cave,full,null,0,8,707,[],coal,1,15,diamond,4,FALSE,45,49,27,3,,37,Weekly,7,White,Woman
P0009,deep,full,good_to_bad,8,4,6417,"[8,11,15,10,6,2,3,4]",diamond,4,9,diamond,4,FALSE,49,0,28,3,,37,Weekly,7,White,Woman
P0009,overworld,partial,null,2,4,1928,"[4,3]",none,0,10,diamond,4,FALSE,49,55,29,3,,37,Weekly,7,White,Woman
P0009,cave,partial,null,2,8,2109,"[8,3]",diamond,4,4,diamond,4,TRUE,53,0,30,3,,37,Weekly,7,White,Woman
P0009,overworld,full,good_to_bad,2,7,2040,"[7,6]",coal,1,5,iron,3,FALSE,54,51,31,3,,37,Weekly,7,White,Woman
P0009,overworld,full,good_to_bad,8,5,5644,"[4,8,11,10,6,2,1,5]",iron,3,9,diamond,4,TRUE,57,27,32,3,,37,Weekly,7,White,Woman
P0009,overworld,partial,null,2,4,1655,"[4,3]",copper,2,10,iron,3,FALSE,59,17,33,3,,37,Weekly,7,White,Woman
P0009,cave,full,null,0,15,45,[],none,0,13,diamond,4,FALSE,59,47,34,3,,37,Weekly,7,White,Woman
P0009,deep,partial,null,0,7,266,[],none,0,12,diamond,4,FALSE,59,32,35,3,,37,Weekly,7,White,Woman
P0009,deep,full,good_to_bad,2,3,2581,"[4,3]",diamond,4,5,diamond,4,FALSE,63,0,36,3,,37,Weekly,7,White,Woman
P0009,deep,partial,null,8,11,4005,"[4,3,7,6,10,11,16,15]",none,0,10,diamond,4,TRUE,63,29,37,3,,37,Weekly,7,White,Woman
P0009,cave,full,good_to_bad,2,3,2373,"[3,4]",copper,2,6,diamond,4,FALSE,65,27,38,3,,37,Weekly,7,White,Woman
P0009,cave,full,bad_to_good,8,7,3754,"[3,10,15,16,12,8,4,7]",none,0,10,diamond,4,FALSE,65,24,39,3,,37,Weekly,7,White,Woman
P0009,deep,partial,null,0,10,615,[],diamond,4,6,diamond,4,TRUE,69,0,40,3,,37,Weekly,7,White,Woman
P0009,overworld,full,bad_to_good,2,3,1914,"[3,7]",none,0,10,diamond,4,FALSE,69,30,41,3,,37,Weekly,7,White,Woman
P0009,deep,full,bad_to_good,8,6,4908,"[11,4,8,12,7,3,2,6]",none,0,2,diamond,4,TRUE,69,31,42,3,,37,Weekly,7,White,Woman
P0009,overworld,full,null,0,11,736,[],none,0,6,iron,3,FALSE,69,31,43,3,,37,Weekly,7,White,Woman
P0009,overworld,full,good_to_bad,2,8,3841,"[8,7]",copper,2,14,iron,3,FALSE,71,29,44,3,,37,Weekly,7,White,Woman
P0009,overworld,partial,null,2,3,2325,"[11,3]",coal,1,6,iron,3,FALSE,72,41,45,3,,37,Weekly,7,White,Woman
P0009,deep,partial,null,8,2,3778,"[3,7,15,10,6,2,1,5]",none,0,1,diamond,4,TRUE,72,32,46,3,,37,Weekly,7,White,Woman
P0009,deep,full,bad_to_good,2,3,2459,"[3,10]",none,0,4,diamond,4,TRUE,72,33,47,3,,37,Weekly,7,White,Woman
P0009,cave,partial,null,0,7,496,[],none,0,6,diamond,4,TRUE,72,38,48,3,,37,Weekly,7,White,Woman
P0009,cave,partial,null,2,3,1846,"[3,7]",coal,1,7,iron,3,TRUE,73,41,49,3,,37,Weekly,7,White,Woman
P0009,overworld,full,bad_to_good,8,2,4694,"[3,7,11,6,2,1,5,9]",none,0,14,diamond,4,FALSE,73,34,50,3,,37,Weekly,7,White,Woman
P0009,deep,partial,null,2,3,2010,"[3,2]",iron,3,8,diamond,4,FALSE,76,32,51,3,,37,Weekly,7,White,Woman
P0009,overworld,full,null,0,11,789,[],none,0,7,diamond,4,TRUE,76,38,52,3,,37,Weekly,7,White,Woman
P0009,cave,partial,null,8,3,9096,"[2,6,4,8,12,11,3,1]",iron,3,13,diamond,4,FALSE,79,37,53,3,,37,Weekly,7,White,Woman
P0009,cave,full,good_to_bad,8,7,7048,"[11,7,3,2,1,6,5,9]",diamond,4,12,diamond,4,FALSE,83,0,54,3,,37,Weekly,7,White,Woman
P0009,overworld,partial,null,0,7,808,[],none,0,15,diamond,4,FALSE,83,18,55,3,,37,Weekly,7,White,Woman
P0009,cave,partial,null,0,7,1415,[],none,0,6,diamond,4,TRUE,83,38,56,3,,37,Weekly,7,White,Woman
P0009,overworld,partial,null,8,3,3245,"[3,2,1,5,6,7,8,4]",none,0,16,diamond,4,FALSE,83,45,57,3,,37,Weekly,7,White,Woman
P0009,cave,partial,null,0,7,651,[],iron,3,14,diamond,4,FALSE,86,26,58,3,,37,Weekly,7,White,Woman
P0009,deep,full,good_to_bad,8,4,3519,"[3,2,1,5,6,7,8,4]",diamond,4,11,diamond,4,FALSE,90,0,59,3,,37,Weekly,7,White,Woman
P0009,deep,partial,null,8,3,4902,"[3,1,5,7,8,12,11,2]",diamond,4,12,diamond,4,FALSE,94,0,60,3,,37,Weekly,7,White,Woman
P0009,cave,full,bad_to_good,8,4,3161,"[3,2,1,5,6,7,8,4]",coal,1,7,diamond,4,FALSE,95,36,61,3,,37,Weekly,7,White,Woman
P0009,overworld,full,bad_to_good,8,1,3155,"[2,3,4,8,7,6,5,1]",copper,2,9,diamond,4,FALSE,97,29,62,3,,37,Weekly,7,White,Woman
P0009,overworld,full,null,0,10,781,[],none,0,15,diamond,4,FALSE,97,28,63,3,,37,Weekly,7,White,Woman
P0009,deep,partial,null,2,3,2655,"[3,2]",none,0,2,diamond,4,TRUE,97,21,64,3,,37,Weekly,7,White,Woman
P0009,cave,full,good_to_bad,2,3,1516,"[3,2]",copper,2,11,diamond,4,FALSE,99,35,65,3,,37,Weekly,7,White,Woman
P0009,cave,full,null,0,7,514,[],copper,2,9,diamond,4,FALSE,101,32,66,3,,37,Weekly,7,White,Woman
P0010,deep,full,bad_to_good,8,6,13591,"[5,3,11,15,13,10,6,7]",none,0,3,diamond,4,FALSE,0,100,1,2,,27,Never,5,White,Woman
P0010,cave,partial,null,8,11,5927,"[3,7,11,15,8,12,16,4]",copper,2,2,diamond,4,FALSE,2,21,2,2,,27,Never,5,White,Woman
P0010,deep,partial,null,2,7,8099,"[6,7]",diamond,4,5,diamond,4,FALSE,6,0,3,2,,27,Never,5,White,Woman
P0010,cave,full,good_to_bad,2,3,4940,"[3,1]",coal,1,4,iron,3,TRUE,7,31,4,2,,27,Never,5,White,Woman
P0010,deep,full,null,0,11,1387,[],iron,3,14,diamond,4,FALSE,10,38,5,2,,27,Never,5,White,Woman
P0010,cave,partial,null,2,7,5819,"[12,7]",none,0,3,diamond,4,TRUE,10,76,6,2,,27,Never,5,White,Woman
P0010,overworld,partial,null,8,9,10035,"[15,13,16,9,11,1,7,4]",coal,1,13,diamond,4,TRUE,11,55,7,2,,27,Never,5,White,Woman
P0010,overworld,partial,null,8,15,13326,"[2,3,4,11,8,15,16,6]",copper,2,13,diamond,4,FALSE,13,37,8,2,,27,Never,5,White,Woman
P0010,deep,partial,null,0,3,2396,[],none,0,7,diamond,4,TRUE,13,94,9,2,,27,Never,5,White,Woman
P0010,deep,full,bad_to_good,2,15,3893,"[15,16]",copper,2,9,diamond,4,FALSE,15,73,10,2,,27,Never,5,White,Woman
P0010,overworld,partial,null,0,12,1317,[],none,0,15,iron,3,FALSE,15,65,11,2,,27,Never,5,White,Woman
P0010,deep,full,bad_to_good,8,12,5199,"[4,8,12,16,14,10,6,2]",coal,1,7,diamond,4,FALSE,16,56,12,2,,27,Never,5,White,Woman
P0010,deep,partial,null,2,6,6317,"[6,8]",copper,2,3,diamond,4,FALSE,18,24,13,2,,27,Never,5,White,Woman
P0010,cave,full,null,0,13,2189,[],none,0,9,diamond,4,TRUE,18,83,14,2,,27,Never,5,White,Woman
P0010,overworld,partial,null,2,3,3698,"[2,3]",none,0,14,diamond,4,FALSE,18,88,15,2,,27,Never,5,White,Woman
P0010,deep,full,good_to_bad,2,11,2667,"[11,10]",iron,3,6,diamond,4,FALSE,21,22,16,2,,27,Never,5,White,Woman
P0010,deep,full,bad_to_good,2,7,6926,"[6,7]",none,0,2,diamond,4,FALSE,21,100,17,2,,27,Never,5,White,Woman
P0010,deep,partial,null,0,2,2254,[],none,0,1,diamond,4,TRUE,21,87,18,2,,27,Never,5,White,Woman
P0010,deep,full,null,0,9,4790,[],copper,2,5,diamond,4,TRUE,23,20,19,2,,27,Never,5,White,Woman
P0010,deep,partial,null,2,12,3146,"[8,12]",copper,2,2,diamond,4,FALSE,25,11,20,2,,27,Never,5,White,Woman
P0010,cave,partial,null,0,4,2874,[],none,0,9,diamond,4,FALSE,25,74,21,2,,27,Never,5,White,Woman
P0010,deep,partial,null,0,10,1228,[],diamond,4,2,diamond,4,FALSE,29,0,22,2,,27,Never,5,White,Woman
P0010,overworld,full,bad_to_good,2,5,4421,"[5,8]",none,0,13,diamond,4,FALSE,29,70,23,2,,27,Never,5,White,Woman
P0010,cave,partial,null,8,8,7660,"[4,8,12,10,9,3,2,1]",diamond,4,7,diamond,4,TRUE,33,0,24,2,,27,Never,5,White,Woman
P0010,cave,full,good_to_bad,2,12,3925,"[12,4]",iron,3,10,diamond,4,FALSE,36,5,25,2,,27,Never,5,White,Woman
P0010,overworld,partial,null,0,16,2490,[],diamond,4,1,diamond,4,FALSE,40,0,26,2,,27,Never,5,White,Woman
P0010,deep,full,null,0,10,4155,[],none,0,3,diamond,4,FALSE,40,93,27,2,,27,Never,5,White,Woman
P0010,cave,full,null,0,8,1271,[],none,0,12,diamond,4,TRUE,40,89,28,2,,27,Never,5,White,Woman
P0010,cave,full,bad_to_good,8,10,7838,"[5,6,7,8,12,11,10,9]",none,0,5,diamond,4,FALSE,40,100,29,2,,27,Never,5,White,Woman
P0010,cave,partial,null,0,9,4234,[],iron,3,5,diamond,4,TRUE,43,32,30,2,,27,Never,5,White,Woman
P0010,overworld,partial,null,8,1,4942,"[1,2,3,4,13,14,15,16]",none,0,16,diamond,4,FALSE,43,87,31,2,,27,Never,5,White,Woman
P0010,cave,partial,null,8,6,6197,"[2,6,10,14,15,11,7,3]",none,0,9,diamond,4,FALSE,43,90,32,2,,27,Never,5,White,Woman
P0010,overworld,full,null,0,11,1122,[],none,0,15,iron,3,TRUE,43,85,33,2,,27,Never,5,White,Woman
P0010,overworld,full,null,0,8,2526,[],none,0,15,iron,3,FALSE,43,92,34,2,,27,Never,5,White,Woman
P0010,overworld,partial,null,0,16,856,[],iron,3,13,diamond,4,FALSE,46,24,35,2,,27,Never,5,White,Woman
P0010,deep,partial,null,2,6,2678,"[6,7]",coal,1,10,diamond,4,TRUE,47,29,36,2,,27,Never,5,White,Woman
P0010,overworld,full,null,0,14,2230,[],none,0,9,diamond,4,FALSE,47,78,37,2,,27,Never,5,White,Woman
P0010,deep,full,good_to_bad,2,11,2665,"[11,7]",iron,3,6,diamond,4,FALSE,50,12,38,2,,27,Never,5,White,Woman
P0010,deep,partial,null,8,10,5878,"[14,15,11,10,6,7,3,2]",none,0,12,diamond,4,FALSE,50,83,39,2,,27,Never,5,White,Woman
P0010,overworld,full,bad_to_good,2,9,3273,"[9,5]",none,0,15,diamond,4,FALSE,50,74,40,2,,27,Never,5,White,Woman
P0010,cave,partial,null,8,3,6118,"[4,3,2,1,9,10,11,12]",none,0,11,diamond,4,FALSE,50,72,41,2,,27,Never,5,White,Woman
P0010,cave,partial,null,2,2,2791,"[1,2]",none,0,10,diamond,4,FALSE,50,82,42,2,,27,Never,5,White,Woman
P0010,cave,full,good_to_bad,2,10,4017,"[11,10]",diamond,4,5,diamond,4,FALSE,54,0,43,2,,27,Never,5,White,Woman
P0010,overworld,full,bad_to_good,8,8,7007,"[8,6,2,4,12,10,14,16]",none,0,5,diamond,4,FALSE,54,98,44,2,,27,Never,5,White,Woman
P0010,cave,full,good_to_bad,2,10,2662,"[12,10]",iron,3,7,iron,3,FALSE,57,9,45,2,,27,Never,5,White,Woman
P0010,overworld,full,good_to_bad,8,14,5701,"[14,10,6,1,2,5,9,13]",copper,2,15,diamond,4,TRUE,59,0,46,2,,27,Never,5,White,Woman
P0010,overworld,full,null,0,12,1995,[],none,0,8,diamond,4,TRUE,59,92,47,2,,27,Never,5,White,Woman
P0010,cave,full,good_to_bad,8,10,7200,"[2,7,10,13,4,11,16,6]",diamond,4,14,diamond,4,TRUE,63,0,48,2,,27,Never,5,White,Woman
P0010,cave,partial,null,0,6,4238,[],none,0,11,diamond,4,FALSE,63,91,49,2,,27,Never,5,White,Woman
P0010,overworld,full,bad_to_good,2,9,3744,"[13,9]",none,0,15,diamond,4,FALSE,63,86,50,2,,27,Never,5,White,Woman
P0010,cave,partial,null,2,6,2646,"[6,7]",none,0,1,diamond,4,FALSE,63,82,51,2,,27,Never,5,White,Woman
P0010,overworld,partial,null,2,1,2838,"[1,4]",coal,1,13,diamond,4,FALSE,64,31,52,2,,27,Never,5,White,Woman
P0010,deep,full,bad_to_good,8,6,5669,"[6,7,10,11,14,2,3,15]",none,0,11,diamond,4,FALSE,64,100,53,2,,27,Never,5,White,Woman
P0010,cave,full,null,0,11,1941,[],diamond,4,9,diamond,4,FALSE,68,0,54,2,,27,Never,5,White,Woman
P0010,deep,partial,null,8,7,11509,"[1,6,11,16,4,7,10,13]",coal,1,3,diamond,4,TRUE,69,22,55,2,,27,Never,5,White,Woman
P0010,overworld,full,good_to_bad,8,12,5786,"[1,2,3,4,12,11,10,9]",copper,2,14,iron,3,FALSE,71,0,56,2,,27,Never,5,White,Woman
P0010,deep,full,good_to_bad,8,6,5898,"[2,6,10,14,4,8,12,16]",diamond,4,7,diamond,4,TRUE,75,0,57,2,,27,Never,5,White,Woman
P0010,cave,full,good_to_bad,8,9,5270,"[1,5,9,13,3,7,11,15]",diamond,4,8,diamond,4,FALSE,79,0,58,2,,27,Never,5,White,Woman
P0010,overworld,partial,null,8,8,5907,"[4,8,12,16,9,10,11,6]",coal,1,12,diamond,4,TRUE,80,27,59,2,,27,Never,5,White,Woman
P0010,overworld,partial,null,0,2,2493,[],none,0,4,iron,3,FALSE,80,100,60,2,,27,Never,5,White,Woman
P0010,cave,partial,null,2,2,8447,"[2,7]",coal,1,6,diamond,4,TRUE,81,30,61,2,,27,Never,5,White,Woman
P0010,overworld,full,good_to_bad,2,3,3638,"[3,10]",coal,1,2,coal,1,TRUE,82,0,62,2,,27,Never,5,White,Woman
P0010,overworld,partial,null,2,9,3617,"[12,9]",copper,2,14,diamond,4,FALSE,84,4,63,2,,27,Never,5,White,Woman
P0010,deep,partial,null,8,10,4400,"[2,6,10,14,11,7,15,3]",coal,1,14,diamond,4,TRUE,85,22,64,2,,27,Never,5,White,Woman
P0010,cave,full,bad_to_good,8,6,5595,"[4,8,12,16,14,10,6,2]",none,0,10,diamond,4,TRUE,85,100,65,2,,27,Never,5,White,Woman
P0010,deep,partial,null,8,10,5801,"[3,7,11,15,14,10,6,2]",diamond,4,6,diamond,4,TRUE,89,0,66,2,,27,Never,5,White,Woman
P0011,overworld,partial,null,0,15,5663,[],none,0,14,diamond,4,TRUE,0,94,1,2,,18,Never,5,"Hispanic, Latino, or Spanish origin; White",Woman
P0011,cave,partial,null,0,6,3795,[],none,0,7,iron,3,TRUE,0,97,2,2,,18,Never,5,"Hispanic, Latino, or Spanish origin; White",Woman
P0011,cave,full,good_to_bad,8,4,40960,"[13,3,4,8,10,11,1,16]",diamond,4,14,diamond,4,FALSE,4,0,3,2,,18,Never,5,"Hispanic, Latino, or Spanish origin; White",Woman
P0011,cave,full,good_to_bad,8,1,30315,"[1,2,12,16,4,13,5,8]",coal,1,6,diamond,4,FALSE,5,0,4,2,,18,Never,5,"Hispanic, Latino, or Spanish origin; White",Woman
P0011,overworld,full,null,0,6,9571,[],none,0,14,diamond,4,FALSE,5,66,5,2,,18,Never,5,"Hispanic, Latino, or Spanish origin; White",Woman
P0011,deep,full,bad_to_good,2,3,9973,"[3,2]",none,0,4,diamond,4,TRUE,5,96,6,2,,18,Never,5,"Hispanic, Latino, or Spanish origin; White",Woman
P0011,deep,partial,null,2,13,22106,"[13,4]",diamond,4,10,diamond,4,FALSE,9,0,7,2,,18,Never,5,"Hispanic, Latino, or Spanish origin; White",Woman
P0011,overworld,partial,null,8,9,29473,"[6,7,4,1,8,13,9,16]",none,0,12,diamond,4,FALSE,9,83,8,2,,18,Never,5,"Hispanic, Latino, or Spanish origin; White",Woman
P0011,cave,partial,null,2,16,23619,"[16,4]",iron,3,1,diamond,4,FALSE,12,3,9,2,,18,Never,5,"Hispanic, Latino, or Spanish origin; White",Woman
P0011,deep,partial,null,8,1,27765,"[8,12,13,16,1,4,2,5]",none,0,5,diamond,4,TRUE,12,99,10,2,,18,Never,5,"Hispanic, Latino, or Spanish origin; White",Woman
P0011,cave,partial,null,8,16,48876,"[3,8,16,15,13,5,9,4]",coal,1,5,diamond,4,FALSE,13,23,11,2,,18,Never,5,"Hispanic, Latino, or Spanish origin; White",Woman
P0011,overworld,partial,null,0,7,28474,[],none,0,11,iron,3,TRUE,13,77,12,2,,18,Never,5,"Hispanic, Latino, or Spanish origin; White",Woman
P0011,cave,full,null,0,12,44359,[],diamond,4,10,diamond,4,FALSE,17,0,13,2,,18,Never,5,"Hispanic, Latino, or Spanish origin; White",Woman
P0011,cave,full,good_to_bad,2,9,23133,"[9,2]",diamond,4,13,diamond,4,TRUE,21,0,14,2,,18,Never,5,"Hispanic, Latino, or Spanish origin; White",Woman
P0011,deep,full,bad_to_good,8,9,68188,"[7,3,2,9,13,14,8,16]",none,0,1,diamond,4,FALSE,21,100,15,2,,18,Never,5,"Hispanic, Latino, or Spanish origin; White",Woman
P0011,deep,partial,null,2,13,12645,"[14,13]",none,0,6,diamond,4,FALSE,21,90,16,2,,18,Never,5,"Hispanic, Latino, or Spanish origin; White",Woman
P0011,overworld,full,bad_to_good,8,6,46475,"[7,13,16,1,4,14,6,11]",none,0,13,iron,3,FALSE,21,100,17,2,,18,Never,5,"Hispanic, Latino, or Spanish origin; White",Woman
P0011,overworld,partial,null,2,16,10027,"[4,16]",none,0,12,iron,3,TRUE,21,81,18,2,,18,Never,5,"Hispanic, Latino, or Spanish origin; White",Woman
P0011,deep,partial,null,8,3,19099,"[2,3,4,1,13,14,15,16]",none,0,11,diamond,4,FALSE,21,83,19,2,,18,Never,5,"Hispanic, Latino, or Spanish origin; White",Woman
P0011,deep,partial,null,0,16,5729,[],diamond,4,1,diamond,4,FALSE,25,0,20,2,,18,Never,5,"Hispanic, Latino, or Spanish origin; White",Woman
P0011,cave,partial,null,2,5,19409,"[5,16]",none,0,8,iron,3,FALSE,25,91,21,2,,18,Never,5,"Hispanic, Latino, or Spanish origin; White",Woman
P0011,deep,full,bad_to_good,8,15,17745,"[4,16,13,1,12,8,15,3]",none,0,1,diamond,4,FALSE,25,100,22,2,,18,Never,5,"Hispanic, Latino, or Spanish origin; White",Woman
P0011,deep,full,null,0,4,4695,[],none,0,5,diamond,4,FALSE,25,88,23,2,,18,Never,5,"Hispanic, Latino, or Spanish origin; White",Woman
P0011,deep,partial,null,8,5,14759,"[13,9,1,4,16,5,15,3]",diamond,4,10,diamond,4,FALSE,29,0,24,2,,18,Never,5,"Hispanic, Latino, or Spanish origin; White",Woman
P0011,overworld,partial,null,2,4,14180,"[16,4]",none,0,15,diamond,4,FALSE,29,65,25,2,,18,Never,5,"Hispanic, Latino, or Spanish origin; White",Woman
P0011,overworld,full,bad_to_good,2,1,8389,"[5,1]",none,0,6,diamond,4,FALSE,29,80,26,2,,18,Never,5,"Hispanic, Latino, or Spanish origin; White",Woman
P0011,cave,full,bad_to_good,2,8,12157,"[8,12]",none,0,5,iron,3,FALSE,29,85,27,2,,18,Never,5,"Hispanic, Latino, or Spanish origin; White",Woman
P0011,deep,full,good_to_bad,8,15,23411,"[15,14,13,16,4,1,9,12]",diamond,4,3,diamond,4,FALSE,33,0,28,2,,18,Never,5,"Hispanic, Latino, or Spanish origin; White",Woman
P0011,overworld,full,null,0,10,6240,[],copper,2,12,diamond,4,FALSE,35,0,29,2,,18,Never,5,"Hispanic, Latino, or Spanish origin; White",Woman
P0011,cave,full,good_to_bad,8,14,24293,"[3,4,8,14,15,13,1,16]",diamond,4,1,iron,3,FALSE,39,0,30,2,,18,Never,5,"Hispanic, Latino, or Spanish origin; White",Woman
P0011,cave,partial,null,8,15,15767,"[4,1,16,14,13,15,3,2]",iron,3,8,diamond,4,FALSE,42,9,31,2,,18,Never,5,"Hispanic, Latino, or Spanish origin; White",Woman
P0011,overworld,full,bad_to_good,2,10,14121,"[10,14]",none,0,16,diamond,4,FALSE,42,87,32,2,,18,Never,5,"Hispanic, Latino, or Spanish origin; White",Woman
P0011,cave,full,bad_to_good,2,4,12011,"[4,16]",iron,3,9,diamond,4,FALSE,45,66,33,2,,18,Never,5,"Hispanic, Latino, or Spanish origin; White",Woman
P0011,overworld,full,good_to_bad,8,15,12383,"[14,15,12,11,10,9,13,16]",diamond,4,16,iron,3,TRUE,49,0,34,2,,18,Never,5,"Hispanic, Latino, or Spanish origin; White",Woman
P0011,deep,partial,null,2,12,7130,"[12,15]",iron,3,6,diamond,4,FALSE,52,33,35,2,,18,Never,5,"Hispanic, Latino, or Spanish origin; White",Woman
P0011,overworld,partial,null,8,10,7934,"[9,10,14,13,11,12,16,15]",none,0,5,diamond,4,FALSE,52,55,36,2,,18,Never,5,"Hispanic, Latino, or Spanish origin; White",Woman
P0011,cave,full,good_to_bad,2,8,9873,"[3,8]",diamond,4,9,diamond,4,FALSE,56,1,37,2,,18,Never,5,"Hispanic, Latino, or Spanish origin; White",Woman
P0011,cave,full,null,0,14,6483,[],diamond,4,9,diamond,4,FALSE,60,0,38,2,,18,Never,5,"Hispanic, Latino, or Spanish origin; White",Woman
P0011,deep,partial,null,8,15,13203,"[12,16,15,14,9,5,2,4]",diamond,4,10,diamond,4,FALSE,64,0,39,2,,18,Never,5,"Hispanic, Latino, or Spanish origin; White",Woman
P0011,overworld,full,good_to_bad,8,8,12772,"[11,9,6,13,14,15,16,8]",diamond,4,9,copper,2,FALSE,68,0,40,2,,18,Never,5,"Hispanic, Latino, or Spanish origin; White",Woman
P0011,overworld,partial,null,8,6,14495,"[6,5,8,15,14,13,11,1]",coal,1,11,diamond,4,FALSE,69,21,41,2,,18,Never,5,"Hispanic, Latino, or Spanish origin; White",Woman
P0011,deep,full,good_to_bad,8,9,14777,"[12,15,14,13,9,5,4,3]",diamond,4,1,diamond,4,FALSE,73,0,42,2,,18,Never,5,"Hispanic, Latino, or Spanish origin; White",Woman
P0011,cave,full,null,0,7,3641,[],diamond,4,3,diamond,4,TRUE,77,0,43,2,,18,Never,5,"Hispanic, Latino, or Spanish origin; White",Woman
P0011,overworld,full,null,0,10,2469,[],coal,1,14,diamond,4,TRUE,78,34,44,2,,18,Never,5,"Hispanic, Latino, or Spanish origin; White",Woman
P0011,deep,partial,null,2,9,10157,"[14,9]",iron,3,6,diamond,4,FALSE,81,4,45,2,,18,Never,5,"Hispanic, Latino, or Spanish origin; White",Woman
P0011,cave,partial,null,8,2,13494,"[14,13,16,15,4,3,2,1]",none,0,9,diamond,4,FALSE,81,59,46,2,,18,Never,5,"Hispanic, Latino, or Spanish origin; White",Woman
P0011,deep,full,null,0,12,4794,[],iron,3,8,diamond,4,TRUE,84,33,47,2,,18,Never,5,"Hispanic, Latino, or Spanish origin; White",Woman
P0011,overworld,full,good_to_bad,8,6,11115,"[15,14,10,6,5,13,16,11]",iron,3,8,iron,3,FALSE,87,0,48,2,,18,Never,5,"Hispanic, Latino, or Spanish origin; White",Woman
P0011,cave,partial,null,8,13,11641,"[3,7,8,4,14,13,9,16]",diamond,4,10,diamond,4,FALSE,91,3,49,2,,18,Never,5,"Hispanic, Latino, or Spanish origin; White",Woman
P0011,overworld,partial,null,2,10,10475,"[10,15]",none,0,15,iron,3,FALSE,91,74,50,2,,18,Never,5,"Hispanic, Latino, or Spanish origin; White",Woman
P0011,deep,partial,null,0,2,4276,[],none,0,10,diamond,4,FALSE,91,84,51,2,,18,Never,5,"Hispanic, Latino, or Spanish origin; White",Woman
P0011,overworld,partial,null,0,13,2464,[],copper,2,14,diamond,4,TRUE,93,16,52,2,,18,Never,5,"Hispanic, Latino, or Spanish origin; White",Woman
P0011,cave,partial,null,2,11,6861,"[15,11]",iron,3,10,diamond,4,TRUE,96,40,53,2,,18,Never,5,"Hispanic, Latino, or Spanish origin; White",Woman
P0011,cave,partial,null,2,15,6112,"[10,15]",copper,2,13,diamond,4,FALSE,98,26,54,2,,18,Never,5,"Hispanic, Latino, or Spanish origin; White",Woman
P0011,overworld,full,null,0,12,2778,[],diamond,4,9,iron,3,FALSE,102,0,55,2,,18,Never,5,"Hispanic, Latino, or Spanish origin; White",Woman
P0011,cave,partial,null,0,14,1763,[],copper,2,1,iron,3,FALSE,104,18,56,2,,18,Never,5,"Hispanic, Latino, or Spanish origin; White",Woman
P0011,deep,full,null,0,16,1020,[],diamond,4,9,diamond,4,FALSE,108,0,57,2,,18,Never,5,"Hispanic, Latino, or Spanish origin; White",Woman
P0011,overworld,full,good_to_bad,2,14,8775,"[14,13]",diamond,4,9,diamond,4,FALSE,112,0,58,2,,18,Never,5,"Hispanic, Latino, or Spanish origin; White",Woman
P0011,deep,partial,null,0,9,1295,[],coal,1,2,diamond,4,FALSE,113,34,59,2,,18,Never,5,"Hispanic, Latino, or Spanish origin; White",Woman
P0011,overworld,partial,null,8,10,10918,"[12,10,9,14,15,13,8,1]",diamond,4,13,diamond,4,FALSE,117,0,60,2,,18,Never,5,"Hispanic, Latino, or Spanish origin; White",Woman
P0011,deep,full,good_to_bad,2,11,3679,"[12,11]",diamond,4,2,diamond,4,FALSE,121,0,61,2,,18,Never,5,"Hispanic, Latino, or Spanish origin; White",Woman
P0011,deep,full,null,0,14,1717,[],diamond,4,6,diamond,4,FALSE,125,0,62,2,,18,Never,5,"Hispanic, Latino, or Spanish origin; White",Woman
P0011,cave,full,null,0,5,759,[],iron,3,14,diamond,4,FALSE,128,7,63,2,,18,Never,5,"Hispanic, Latino, or Spanish origin; White",Woman
P0011,cave,partial,null,0,8,1660,[],diamond,4,1,diamond,4,FALSE,132,0,64,2,,18,Never,5,"Hispanic, Latino, or Spanish origin; White",Woman
P0011,deep,full,bad_to_good,2,3,4928,"[3,7]",copper,2,4,diamond,4,TRUE,134,46,65,2,,18,Never,5,"Hispanic, Latino, or Spanish origin; White",Woman
P0011,overworld,partial,null,0,11,1166,[],copper,2,2,copper,2,FALSE,136,17,66,2,,18,Never,5,"Hispanic, Latino, or Spanish origin; White",Woman
P0012,overworld,full,good_to_bad,8,10,12103,"[5,10,7,12,16,14,2,4]",diamond,4,9,diamond,4,TRUE,4,0,1,2,,18,Weekly,6,Asian,Man
P0012,overworld,full,null,0,14,683,[],coal,1,13,iron,3,TRUE,5,5,2,2,,18,Weekly,6,Asian,Man
P0012,overworld,full,good_to_bad,2,11,3954,"[6,11]",iron,3,13,diamond,4,FALSE,8,0,3,2,,18,Weekly,6,Asian,Man
P0012,deep,partial,null,8,7,6135,"[14,10,7,8,16,6,1,3]",none,0,8,diamond,4,TRUE,8,0,4,2,,18,Weekly,6,Asian,Man
P0012,overworld,full,good_to_bad,8,11,4532,"[10,11,7,6,14,15,3,2]",copper,2,16,diamond,4,FALSE,10,0,5,2,,18,Weekly,6,Asian,Man
P0012,deep,full,null,0,11,107,[],diamond,4,2,diamond,4,FALSE,14,0,6,2,,18,Weekly,6,Asian,Man
P0012,cave,partial,null,8,11,5351,"[11,10,9,5,2,7,16,15]",copper,2,9,diamond,4,FALSE,16,0,7,2,,18,Weekly,6,Asian,Man
P0012,cave,full,good_to_bad,2,10,2323,"[10,6]",copper,2,5,diamond,4,FALSE,18,0,8,2,,18,Weekly,6,Asian,Man
P0012,cave,partial,null,2,7,1672,"[7,6]",none,0,5,diamond,4,FALSE,18,0,9,2,,18,Weekly,6,Asian,Man
P0012,overworld,partial,null,8,16,3432,"[7,11,10,9,13,14,15,16]",none,0,14,diamond,4,FALSE,18,0,10,2,,18,Weekly,6,Asian,Man
P0012,overworld,full,null,0,6,959,[],iron,3,16,iron,3,FALSE,21,0,11,2,,18,Weekly,6,Asian,Man
P0012,overworld,full,good_to_bad,2,7,2159,"[6,7]",iron,3,13,iron,3,FALSE,24,0,12,2,,18,Weekly,6,Asian,Man
P0012,deep,partial,null,2,7,1834,"[6,7]",diamond,4,10,diamond,4,FALSE,28,0,13,2,,18,Weekly,6,Asian,Man
P0012,deep,full,good_to_bad,2,13,2126,"[13,14]",copper,2,8,diamond,4,FALSE,30,0,14,2,,18,Weekly,6,Asian,Man
P0012,deep,full,null,0,16,591,[],iron,3,5,diamond,4,FALSE,33,0,15,2,,18,Weekly,6,Asian,Man
P0012,cave,partial,null,0,6,810,[],none,0,4,copper,2,FALSE,33,0,16,2,,18,Weekly,6,Asian,Man
P0012,cave,full,good_to_bad,8,7,4074,"[6,10,11,7,8,12,16,3]",iron,3,5,diamond,4,FALSE,36,0,17,2,,18,Weekly,6,Asian,Man
P0012,overworld,full,good_to_bad,8,15,4422,"[5,6,2,7,11,15,14,16]",copper,2,13,diamond,4,FALSE,38,0,18,2,,18,Weekly,6,Asian,Man
P0012,deep,full,good_to_bad,8,7,4327,"[6,10,9,5,1,3,7,11]",diamond,4,2,diamond,4,FALSE,42,0,19,2,,18,Weekly,6,Asian,Man
P0012,deep,full,good_to_bad,8,16,3641,"[10,11,15,16,12,8,4,3]",diamond,4,4,iron,3,FALSE,46,0,20,2,,18,Weekly,6,Asian,Man
P0012,cave,full,bad_to_good,8,6,3174,"[7,6,10,11,15,14,13,9]",none,0,5,diamond,4,TRUE,46,25,21,2,,18,Weekly,6,Asian,Man
P0012,cave,partial,null,0,5,802,[],diamond,4,9,diamond,4,TRUE,50,0,22,2,,18,Weekly,6,Asian,Man
P0012,deep,full,good_to_bad,2,7,1999,"[6,7]",diamond,4,3,diamond,4,TRUE,54,0,23,2,,18,Weekly,6,Asian,Man
P0012,overworld,full,bad_to_good,8,7,3985,"[10,14,13,9,5,6,7,3]",none,0,10,copper,2,FALSE,54,5,24,2,,18,Weekly,6,Asian,Man
P0012,deep,partial,null,0,11,867,[],none,0,1,diamond,4,FALSE,54,0,25,2,,18,Weekly,6,Asian,Man
P0012,cave,partial,null,8,7,3903,"[11,10,14,15,16,12,8,7]",iron,3,5,diamond,4,FALSE,57,0,26,2,,18,Weekly,6,Asian,Man
P0012,deep,full,null,0,14,737,[],diamond,4,3,diamond,4,FALSE,61,0,27,2,,18,Weekly,6,Asian,Man
P0012,overworld,partial,null,0,8,809,[],none,0,13,diamond,4,FALSE,61,0,28,2,,18,Weekly,6,Asian,Man
P0012,deep,full,bad_to_good,2,10,3091,"[10,6]",iron,3,6,diamond,4,TRUE,64,3,29,2,,18,Weekly,6,Asian,Man
P0012,cave,full,bad_to_good,8,11,4886,"[11,7,3,2,1,4,8,6]",diamond,4,13,diamond,4,FALSE,68,0,30,2,,18,Weekly,6,Asian,Man
P0012,deep,full,null,0,14,506,[],iron,3,7,diamond,4,FALSE,71,0,31,2,,18,Weekly,6,Asian,Man
P0012,cave,partial,null,2,6,2020,"[7,6]",none,0,2,iron,3,TRUE,71,0,32,2,,18,Weekly,6,Asian,Man
P0012,deep,full,bad_to_good,8,11,3427,"[7,11,10,6,5,1,2,3]",none,0,4,diamond,4,FALSE,71,25,33,2,,18,Weekly,6,Asian,Man
P0012,overworld,full,good_to_bad,2,6,2190,"[7,6]",copper,2,9,iron,3,FALSE,73,0,34,2,,18,Weekly,6,Asian,Man
P0012,deep,partial,null,2,6,2533,"[7,6]",copper,2,3,diamond,4,FALSE,75,0,35,2,,18,Weekly,6,Asian,Man
P0012,overworld,partial,null,0,8,686,[],none,0,14,diamond,4,FALSE,75,0,36,2,,18,Weekly,6,Asian,Man
P0012,overworld,partial,null,0,14,689,[],copper,2,13,iron,3,TRUE,77,0,37,2,,18,Weekly,6,Asian,Man
P0012,cave,partial,null,8,7,3998,"[7,6,5,1,2,3,4,8]",none,0,12,diamond,4,FALSE,77,0,38,2,,18,Weekly,6,Asian,Man
P0012,cave,full,null,0,11,380,[],diamond,4,10,diamond,4,TRUE,81,0,39,2,,18,Weekly,6,Asian,Man
P0012,deep,partial,null,0,7,738,[],copper,2,3,diamond,4,TRUE,83,0,40,2,,18,Weekly,6,Asian,Man
P0012,deep,partial,null,8,3,3733,"[3,7,6,5,1,2,4,8]",diamond,4,4,diamond,4,TRUE,87,0,41,2,,18,Weekly,6,Asian,Man
P0012,overworld,partial,null,0,11,690,[],coal,1,6,copper,2,FALSE,88,0,42,2,,18,Weekly,6,Asian,Man
P0012,cave,partial,null,0,10,760,[],coal,1,9,diamond,4,TRUE,89,0,43,2,,18,Weekly,6,Asian,Man
P0012,cave,full,bad_to_good,8,7,3338,"[7,6,5,1,2,3,4,8]",none,0,2,diamond,4,FALSE,89,26,44,2,,18,Weekly,6,Asian,Man
P0012,cave,partial,null,8,7,3492,"[6,7,8,4,3,2,1,5]",diamond,4,3,diamond,4,TRUE,93,0,45,2,,18,Weekly,6,Asian,Man
P0012,cave,full,null,0,10,1067,[],coal,1,15,diamond,4,FALSE,94,0,46,2,,18,Weekly,6,Asian,Man
P0012,cave,partial,null,2,7,1872,"[6,7]",none,0,9,diamond,4,FALSE,94,0,47,2,,18,Weekly,6,Asian,Man
P0012,overworld,partial,null,8,7,3193,"[6,7,8,4,3,2,1,5]",coal,1,4,diamond,4,FALSE,95,0,48,2,,18,Weekly,6,Asian,Man
P0012,overworld,partial,null,2,2,1824,"[1,2]",none,0,9,diamond,4,FALSE,95,0,49,2,,18,Weekly,6,Asian,Man
P0012,overworld,partial,null,8,6,3355,"[1,5,6,7,8,4,3,2]",none,0,12,diamond,4,FALSE,95,0,50,2,,18,Weekly,6,Asian,Man
P0012,deep,partial,null,0,1,931,[],none,0,6,diamond,4,FALSE,95,0,51,2,,18,Weekly,6,Asian,Man
P0012,cave,full,null,0,7,618,[],none,0,5,diamond,4,FALSE,95,0,52,2,,18,Weekly,6,Asian,Man
P0012,cave,full,null,0,5,818,[],iron,3,11,diamond,4,FALSE,98,0,53,2,,18,Weekly,6,Asian,Man
P0012,deep,partial,null,8,7,4023,"[7,6,5,1,2,8,4,3]",iron,3,8,diamond,4,TRUE,101,0,54,2,,18,Weekly,6,Asian,Man
P0012,cave,full,bad_to_good,2,9,3261,"[9,10]",copper,2,10,diamond,4,TRUE,103,3,55,2,,18,Weekly,6,Asian,Man
P0012,deep,partial,null,2,6,1993,"[6,7]",iron,3,7,diamond,4,TRUE,106,0,56,2,,18,Weekly,6,Asian,Man
P0012,overworld,full,bad_to_good,2,2,1700,"[6,2]",none,0,14,diamond,4,FALSE,106,0,57,2,,18,Weekly,6,Asian,Man
P0012,deep,partial,null,0,2,799,[],diamond,4,5,diamond,4,FALSE,110,0,58,2,,18,Weekly,6,Asian,Man
P0012,overworld,partial,null,8,2,3137,"[2,3,4,8,7,6,5,1]",coal,1,7,diamond,4,FALSE,111,0,59,2,,18,Weekly,6,Asian,Man
P0012,deep,partial,null,2,3,2186,"[2,3]",copper,2,4,diamond,4,TRUE,113,0,60,2,,18,Weekly,6,Asian,Man
P0012,cave,full,bad_to_good,2,2,1610,"[6,2]",none,0,3,diamond,4,TRUE,113,7,61,2,,18,Weekly,6,Asian,Man
P0012,overworld,full,null,0,6,947,[],none,0,7,iron,3,TRUE,113,0,62,2,,18,Weekly,6,Asian,Man
P0012,cave,partial,null,2,2,1352,"[1,2]",none,0,15,diamond,4,FALSE,113,0,63,2,,18,Weekly,6,Asian,Man
P0012,overworld,partial,null,2,2,1565,"[1,2]",coal,1,14,diamond,4,FALSE,114,0,64,2,,18,Weekly,6,Asian,Man
P0012,deep,full,bad_to_good,2,2,1844,"[1,2]",none,0,3,diamond,4,TRUE,114,2,65,2,,18,Weekly,6,Asian,Man
P0012,overworld,partial,null,2,7,1804,"[7,6]",none,0,10,copper,2,FALSE,114,0,66,2,,18,Weekly,6,Asian,Man
P0013,overworld,full,bad_to_good,8,7,14909,"[3,9,15,7,13,12,2,8]",none,0,9,diamond,4,FALSE,0,100,1,1,This was a very fun study probably my favorite that i have done on prolific,22,Once or twice,6,White,Man
P0013,overworld,partial,null,2,15,10823,"[2,15]",copper,2,16,diamond,4,TRUE,2,55,2,1,This was a very fun study probably my favorite that i have done on prolific,22,Once or twice,6,White,Man
P0013,deep,full,bad_to_good,2,4,3287,"[4,13]",none,0,2,diamond,4,FALSE,2,100,3,1,This was a very fun study probably my favorite that i have done on prolific,22,Once or twice,6,White,Man
P0013,overworld,partial,null,0,11,3473,[],iron,3,15,iron,3,TRUE,5,30,4,1,This was a very fun study probably my favorite that i have done on prolific,22,Once or twice,6,White,Man
P0013,overworld,partial,null,0,12,1763,[],iron,3,16,diamond,4,TRUE,8,25,5,1,This was a very fun study probably my favorite that i have done on prolific,22,Once or twice,6,White,Man
P0013,cave,full,good_to_bad,8,10,8733,"[2,7,10,16,8,9,14,3]",diamond,4,13,diamond,4,FALSE,12,0,6,1,This was a very fun study probably my favorite that i have done on prolific,22,Once or twice,6,White,Man
P0013,overworld,partial,null,0,16,1930,[],copper,2,5,iron,3,FALSE,14,50,7,1,This was a very fun study probably my favorite that i have done on prolific,22,Once or twice,6,White,Man
P0013,deep,partial,null,0,2,1853,[],none,0,4,diamond,4,FALSE,14,100,8,1,This was a very fun study probably my favorite that i have done on prolific,22,Once or twice,6,White,Man
P0013,overworld,full,null,0,14,1017,[],none,0,8,iron,3,FALSE,14,100,9,1,This was a very fun study probably my favorite that i have done on prolific,22,Once or twice,6,White,Man
P0013,overworld,partial,null,8,3,15468,"[1,2,3,4,9,10,11,12]",none,0,9,diamond,4,FALSE,14,100,10,1,This was a very fun study probably my favorite that i have done on prolific,22,Once or twice,6,White,Man
P0013,cave,partial,null,2,14,4348,"[14,11]",none,0,5,diamond,4,FALSE,14,100,11,1,This was a very fun study probably my favorite that i have done on prolific,22,Once or twice,6,White,Man
P0013,deep,full,good_to_bad,2,8,3779,"[8,13]",iron,3,12,diamond,4,TRUE,17,20,12,1,This was a very fun study probably my favorite that i have done on prolific,22,Once or twice,6,White,Man
P0013,cave,full,bad_to_good,8,9,7908,"[2,8,15,9,3,14,6,11]",none,0,10,diamond,4,TRUE,17,100,13,1,This was a very fun study probably my favorite that i have done on prolific,22,Once or twice,6,White,Man
P0013,overworld,full,good_to_bad,2,8,2623,"[4,8]",diamond,4,13,diamond,4,FALSE,21,0,14,1,This was a very fun study probably my favorite that i have done on prolific,22,Once or twice,6,White,Man
P0013,overworld,partial,null,2,16,3571,"[1,16]",none,0,7,diamond,4,FALSE,21,100,15,1,This was a very fun study probably my favorite that i have done on prolific,22,Once or twice,6,White,Man
P0013,deep,full,null,0,15,547,[],none,0,6,diamond,4,FALSE,21,100,16,1,This was a very fun study probably my favorite that i have done on prolific,22,Once or twice,6,White,Man
P0013,deep,partial,null,0,10,2314,[],diamond,4,9,diamond,4,TRUE,25,0,17,1,This was a very fun study probably my favorite that i have done on prolific,22,Once or twice,6,White,Man
P0013,overworld,full,good_to_bad,8,6,9144,"[2,10,14,4,8,12,16,6]",diamond,4,7,iron,3,TRUE,29,0,18,1,This was a very fun study probably my favorite that i have done on prolific,22,Once or twice,6,White,Man
P0013,cave,partial,null,8,11,8123,"[1,6,11,16,13,10,7,4]",diamond,4,2,diamond,4,FALSE,33,0,19,1,This was a very fun study probably my favorite that i have done on prolific,22,Once or twice,6,White,Man
P0013,cave,partial,null,8,8,8523,"[1,5,10,11,8,4,14,15]",none,0,2,diamond,4,FALSE,33,100,20,1,This was a very fun study probably my favorite that i have done on prolific,22,Once or twice,6,White,Man
P0013,deep,full,bad_to_good,8,11,6375,"[13,14,15,16,12,11,10,9]",none,0,3,diamond,4,FALSE,33,100,21,1,This was a very fun study probably my favorite that i have done on prolific,22,Once or twice,6,White,Man
P0013,deep,full,null,0,2,1317,[],copper,2,5,diamond,4,FALSE,35,50,22,1,This was a very fun study probably my favorite that i have done on prolific,22,Once or twice,6,White,Man
P0013,overworld,full,null,0,12,3478,[],coal,1,2,iron,3,FALSE,36,75,23,1,This was a very fun study probably my favorite that i have done on prolific,22,Once or twice,6,White,Man
P0013,cave,partial,null,8,2,5971,"[1,2,3,4,8,7,6,5]",coal,1,6,diamond,4,TRUE,37,75,24,1,This was a very fun study probably my favorite that i have done on prolific,22,Once or twice,6,White,Man
